rosbagTimestamp,Fx,Fy,Fz,Tx,Ty,Tz
1471539672636547139,-357379.0,-287428.0,-8681407.0,-2419.0,85673.0,-12252.0
1471539672638043330,-335907.0,-276728.0,-8753865.0,-2227.0,82532.0,-11337.0
1471539672643561142,-335816.0,-252488.0,-8753650.0,-1934.0,82538.0,-12133.0
1471539672645051671,-357110.0,-264011.0,-8716930.0,-2122.0,84226.0,-12994.0
1471539672647238125,-336171.0,-250843.0,-8682175.0,-1944.0,85445.0,-12241.0
1471539672648775216,-338105.0,-251512.0,-8716883.0,-4406.0,83980.0,-12168.0
1471539672656568989,-335993.0,-251665.0,-8717912.0,-1939.0,83992.0,-12187.0
1471539672658032549,-335816.0,-252488.0,-8753650.0,-1934.0,82538.0,-12133.0
1471539672666048690,-336171.0,-250843.0,-8682175.0,-1944.0,85445.0,-12241.0
1471539672667066671,-378150.0,-251614.0,-8789638.0,-1961.0,85920.0,-12175.0
1471539672682129244,-357110.0,-264011.0,-8716930.0,-2122.0,84226.0,-12994.0
1471539672682613840,-335993.0,-251665.0,-8717912.0,-1939.0,83992.0,-12187.0
1471539672686559054,-337292.0,-252031.0,-8789323.0,-3152.0,83255.0,-12100.0
1471539672688037345,-357379.0,-287428.0,-8681407.0,-2419.0,85673.0,-12252.0
1471539672703584422,-357201.0,-288251.0,-8717145.0,-2415.0,84219.0,-12198.0
1471539672705036665,-334339.0,-252945.0,-8717976.0,-717.0,81821.0,-12165.0
1471539672707215998,-357110.0,-264011.0,-8716930.0,-2122.0,84226.0,-12994.0
1471539672708791317,-356566.0,-287947.0,-8753847.0,-1165.0,84947.0,-12184.0
1471539672717083851,-335993.0,-251665.0,-8717912.0,-1939.0,83992.0,-12187.0
1471539672718553527,-335993.0,-251665.0,-8717912.0,-1939.0,83992.0,-12187.0
1471539672726064138,-356475.0,-263708.0,-8753632.0,-873.0,84954.0,-12980.0
1471539672727058046,-335816.0,-252488.0,-8753650.0,-1934.0,82538.0,-12133.0
1471539672740114326,-357659.0,-289377.0,-8716180.0,-3660.0,82038.0,-12158.0
1471539672741096343,-357288.0,-263189.0,-8681192.0,-2127.0,85679.0,-13048.0
1471539672746884667,-356014.0,-240851.0,-8753983.0,-1805.0,82787.0,-11360.0
1471539672748352692,-357110.0,-264011.0,-8716930.0,-2122.0,84226.0,-12994.0
1471539672763384834,-357668.0,-239572.0,-8753919.0,-3027.0,84958.0,-11381.0
1471539672764367797,-357288.0,-263189.0,-8681192.0,-2127.0,85679.0,-13048.0
1471539672768538374,-357379.0,-287428.0,-8681407.0,-2419.0,85673.0,-12252.0
1471539672769577953,-358586.0,-263554.0,-8752603.0,-3340.0,84943.0,-12961.0
1471539672785011595,-357110.0,-264011.0,-8716930.0,-2122.0,84226.0,-12994.0
1471539672786501699,-335907.0,-276728.0,-8753865.0,-2227.0,82532.0,-11337.0
1471539672794013779,-335993.0,-251665.0,-8717912.0,-1939.0,83992.0,-12187.0
1471539672795488163,-357391.0,-265960.0,-8751702.0,-3362.0,80590.0,-12900.0
1471539672799993071,-359045.0,-264681.0,-8751638.0,-4585.0,82761.0,-12921.0
1471539672802096597,-336262.0,-275083.0,-8682390.0,-2236.0,85439.0,-11445.0
1471539672806973930,-355923.0,-216611.0,-8753767.0,-1512.0,82793.0,-12156.0
1471539672807983004,-317448.0,-262023.0,-8717516.0,-3291.0,85913.0,-12981.0
1471539672823033500,-356475.0,-263708.0,-8753632.0,-873.0,84954.0,-12980.0
1471539672824488401,-355902.0,-287885.0,-8645734.0,-1202.0,84956.0,-12285.0
1471539672827089387,-336451.0,-252792.0,-8716947.0,-3184.0,81810.0,-12146.0
1471539672828698840,-356192.0,-240029.0,-8718245.0,-1810.0,84241.0,-11414.0
1471539672846001617,-336451.0,-252792.0,-8716947.0,-3184.0,81810.0,-12146.0
1471539672847016891,-357110.0,-264011.0,-8716930.0,-2122.0,84226.0,-12994.0
1471539672850219668,-357379.0,-287428.0,-8681407.0,-2419.0,85673.0,-12252.0
1471539672853014695,-335626.0,-274779.0,-8719093.0,-987.0,86167.0,-11431.0
1471539672860980301,-338105.0,-251512.0,-8716883.0,-4406.0,83980.0,-12168.0
1471539672862514730,-356566.0,-287947.0,-8753847.0,-1165.0,84947.0,-12184.0
1471539672872315716,-335993.0,-251665.0,-8717912.0,-1939.0,83992.0,-12187.0
1471539672873658865,-357568.0,-265138.0,-8715965.0,-3367.0,82044.0,-12954.0
1471539672883577716,-355090.0,-288404.0,-8718174.0,53.0,84231.0,-12217.0
1471539672884992886,-336171.0,-250843.0,-8682175.0,-1944.0,85445.0,-12241.0
1471539672887132164,-337469.0,-251208.0,-8753586.0,-3157.0,84709.0,-12154.0
1471539672888730420,-357110.0,-264011.0,-8716930.0,-2122.0,84226.0,-12994.0
1471539672905552155,-336084.0,-275905.0,-8718128.0,-2232.0,83985.0,-11391.0
1471539672907076974,-354631.0,-287278.0,-8719139.0,1298.0,86412.0,-12258.0
1471539672910291905,-355267.0,-287582.0,-8682436.0,48.0,85684.0,-12271.0
1471539672911241235,-334150.0,-275236.0,-8683419.0,231.0,85450.0,-11464.0
1471539672921057464,-335626.0,-274779.0,-8719093.0,-987.0,86167.0,-11431.0
1471539672924072451,-357288.0,-263189.0,-8681192.0,-2127.0,85679.0,-13048.0
1471539672932203300,-335330.0,-251603.0,-8609799.0,-1976.0,84000.0,-12288.0
1471539672933701543,-334059.0,-250996.0,-8683204.0,524.0,85456.0,-12260.0
1471539672952590199,-356921.0,-286302.0,-8682372.0,-1174.0,87855.0,-12293.0
1471539672953080945,-375466.0,-275945.0,-8682769.0,177.0,85933.0,-11499.0
1471539672954696436,-357110.0,-264011.0,-8716930.0,-2122.0,84226.0,-12994.0
1471539672956179774,-356283.0,-264268.0,-8718461.0,-2102.0,84234.0,-10618.0
1471539672965717651,-335535.0,-250539.0,-8718877.0,-694.0,86173.0,-12227.0
1471539672966842055,-376942.0,-275488.0,-8718443.0,-1040.0,86650.0,-11466.0
1471539672969839085,-356743.0,-287125.0,-8718110.0,-1170.0,86401.0,-12239.0
1471539672971872723,-356192.0,-240029.0,-8718245.0,-1810.0,84241.0,-11414.0
1471539672979216836,-336262.0,-275083.0,-8682390.0,-2236.0,85439.0,-11445.0
1471539672980670643,-356921.0,-286302.0,-8682372.0,-1174.0,87855.0,-12293.0
1471539672988679472,-356830.0,-262062.0,-8682157.0,-882.0,87861.0,-13089.0
1471539672989686106,-355090.0,-288404.0,-8718174.0,53.0,84231.0,-12217.0
1471539673003190673,-356652.0,-262885.0,-8717895.0,-877.0,86407.0,-13035.0
1471539673004227264,-336171.0,-250843.0,-8682175.0,-1944.0,85445.0,-12241.0
1471539673009202174,-354807.0,-264725.0,-8682787.0,-884.0,83517.0,-10651.0
1471539673010520315,-335626.0,-274779.0,-8719093.0,-987.0,86167.0,-11431.0
1471539673025715733,-377400.0,-276614.0,-8717478.0,-2285.0,84468.0,-11426.0
1471539673026660082,-355725.0,-288708.0,-8681471.0,-1197.0,83502.0,-12231.0
1471539673029843864,-355176.0,-263342.0,-8682221.0,341.0,85691.0,-13067.0
1471539673032053126,-336171.0,-250843.0,-8682175.0,-1944.0,85445.0,-12241.0
1471539673039192731,-335626.0,-274779.0,-8719093.0,-987.0,86167.0,-11431.0
1471539673040681615,-336171.0,-250843.0,-8682175.0,-1944.0,85445.0,-12241.0
1471539673048675083,-376851.0,-251248.0,-8718227.0,-748.0,86656.0,-12262.0
1471539673049890427,-356566.0,-287947.0,-8753847.0,-1165.0,84947.0,-12184.0
1471539673070748108,-336171.0,-250843.0,-8682175.0,-1944.0,85445.0,-12241.0
1471539673073216289,-379054.0,-275335.0,-8717414.0,-3508.0,86639.0,-11447.0
1471539673075169229,-376010.0,-252009.0,-8645851.0,-780.0,85211.0,-12309.0
1471539673076681470,-375924.0,-277071.0,-8681804.0,-1067.0,83751.0,-11459.0
1471539673085696096,-336171.0,-250843.0,-8682175.0,-1944.0,85445.0,-12241.0
1471539673087127242,-357110.0,-264011.0,-8716930.0,-2122.0,84226.0,-12994.0
1471539673090198943,-357288.0,-263189.0,-8681192.0,-2127.0,85679.0,-13048.0
1471539673092209551,-356566.0,-287947.0,-8753847.0,-1165.0,84947.0,-12184.0
1471539673099620395,-357379.0,-287428.0,-8681407.0,-2419.0,85673.0,-12252.0
1471539673100898327,-357197.0,-238949.0,-8680977.0,-1834.0,85686.0,-13844.0
1471539673108887751,-356921.0,-286302.0,-8682372.0,-1174.0,87855.0,-12293.0
1471539673110539555,-333972.0,-276058.0,-8719157.0,236.0,83996.0,-11410.0
1471539673123083483,-337292.0,-252031.0,-8789323.0,-3152.0,83255.0,-12100.0
1471539673124506431,-357110.0,-264011.0,-8716930.0,-2122.0,84226.0,-12994.0
1471539673127497898,-338105.0,-251512.0,-8716883.0,-4406.0,83980.0,-12168.0
1471539673128674569,-357746.0,-264315.0,-8680227.0,-3372.0,83498.0,-13008.0
1471539673144579735,-335626.0,-274779.0,-8719093.0,-987.0,86167.0,-11431.0
1471539673146003099,-337003.0,-299888.0,-8716812.0,-2544.0,83970.0,-12971.0
1471539673154055695,-335804.0,-273956.0,-8683355.0,-991.0,87620.0,-11485.0
1471539673155055165,-357288.0,-263189.0,-8681192.0,-2127.0,85679.0,-13048.0
1471539673158993265,-377400.0,-276614.0,-8717478.0,-2285.0,84468.0,-11426.0
1471539673160521340,-357379.0,-287428.0,-8681407.0,-2419.0,85673.0,-12252.0
1471539673168518982,-336262.0,-275083.0,-8682390.0,-2236.0,85439.0,-11445.0
1471539673170018191,-377944.0,-252678.0,-8680560.0,-3242.0,83747.0,-12236.0
1471539673183034581,-337469.0,-251208.0,-8753586.0,-3157.0,84709.0,-12154.0
1471539673184552269,-335993.0,-251665.0,-8717912.0,-1939.0,83992.0,-12187.0
1471539673194636371,-355725.0,-288708.0,-8681471.0,-1197.0,83502.0,-12231.0
1471539673196176912,-356919.0,-264572.0,-8681758.0,-3352.0,83506.0,-10632.0
1471539673205505525,-355267.0,-287582.0,-8682436.0,48.0,85684.0,-12271.0
1471539673207012476,-357379.0,-287428.0,-8681407.0,-2419.0,85673.0,-12252.0
1471539673210157944,-355267.0,-287582.0,-8682436.0,48.0,85684.0,-12271.0
1471539673211897373,-336171.0,-250843.0,-8682175.0,-1944.0,85445.0,-12241.0
1471539673219528192,-336084.0,-275905.0,-8718128.0,-2232.0,83985.0,-11391.0
1471539673220501726,-357659.0,-289377.0,-8716180.0,-3660.0,82038.0,-12158.0
1471539673228529783,-334608.0,-276362.0,-8682454.0,-1014.0,83268.0,-11424.0
1471539673230079699,-335993.0,-251665.0,-8717912.0,-1939.0,83992.0,-12187.0
1471539673243217977,-354631.0,-287278.0,-8719139.0,1298.0,86412.0,-12258.0
1471539673244712002,-336451.0,-252792.0,-8716947.0,-3184.0,81810.0,-12146.0
1471539673247364157,-356014.0,-240851.0,-8753983.0,-1805.0,82787.0,-11360.0
1471539673248939699,-336451.0,-252792.0,-8716947.0,-3184.0,81810.0,-12146.0
1471539673265774877,-335907.0,-276728.0,-8753865.0,-2227.0,82532.0,-11337.0
1471539673266766826,-357110.0,-264011.0,-8716930.0,-2122.0,84226.0,-12994.0
1471539673272715199,-357024.0,-289074.0,-8752882.0,-2410.0,82766.0,-12144.0
1471539673273721725,-336274.0,-253614.0,-8752685.0,-3179.0,80356.0,-12092.0
1471539673279218937,-336084.0,-275905.0,-8718128.0,-2232.0,83985.0,-11391.0
1471539673280727324,-357746.0,-264315.0,-8680227.0,-3372.0,83498.0,-13008.0
1471539673288726019,-357201.0,-288251.0,-8717145.0,-2415.0,84219.0,-12198.0
1471539673289723633,-315886.0,-287542.0,-8717795.0,-2361.0,83736.0,-12163.0
1471539673303724764,-354912.0,-289227.0,-8753911.0,57.0,82777.0,-12163.0
1471539673304720040,-335907.0,-276728.0,-8753865.0,-2227.0,82532.0,-11337.0
1471539673314853107,-357379.0,-287428.0,-8681407.0,-2419.0,85673.0,-12252.0
1471539673316396554,-336084.0,-275905.0,-8718128.0,-2232.0,83985.0,-11391.0
1471539673325753561,-377223.0,-277437.0,-8753215.0,-2281.0,83015.0,-11372.0
1471539673326718689,-356283.0,-264268.0,-8718461.0,-2102.0,84234.0,-10618.0
1471539673329981525,-357110.0,-264011.0,-8716930.0,-2122.0,84226.0,-12994.0
1471539673330896082,-336542.0,-277032.0,-8717163.0,-3476.0,81804.0,-11350.0
1471539673339278678,-377309.0,-252375.0,-8717262.0,-1993.0,84475.0,-12222.0
1471539673340710911,-357379.0,-287428.0,-8681407.0,-2419.0,85673.0,-12252.0
1471539673348729266,-336451.0,-252792.0,-8716947.0,-3184.0,81810.0,-12146.0
1471539673350214198,-357110.0,-264011.0,-8716930.0,-2122.0,84226.0,-12994.0
1471539673363227207,-357951.0,-263251.0,-8789305.0,-2090.0,85671.0,-12948.0
1471539673364724472,-335993.0,-251665.0,-8717912.0,-1939.0,83992.0,-12187.0
1471539673367610779,-357110.0,-264011.0,-8716930.0,-2122.0,84226.0,-12994.0
1471539673370616665,-357024.0,-289074.0,-8752882.0,-2410.0,82766.0,-12144.0
1471539673385623111,-335729.0,-277550.0,-8789603.0,-2222.0,81078.0,-11282.0
1471539673387114368,-337469.0,-251208.0,-8753586.0,-3157.0,84709.0,-12154.0
1471539673389807606,-357110.0,-264011.0,-8716930.0,-2122.0,84226.0,-12994.0
1471539673391262092,-335993.0,-251665.0,-8717912.0,-1939.0,83992.0,-12187.0
1471539673399644733,-356933.0,-264834.0,-8752667.0,-2117.0,82772.0,-12940.0
1471539673400610150,-337928.0,-252335.0,-8752621.0,-4402.0,82527.0,-12114.0
1471539673408625839,-376673.0,-252071.0,-8753965.0,-743.0,85203.0,-12208.0
1471539673409628584,-357477.0,-240898.0,-8715749.0,-3074.0,82051.0,-13750.0
1471539673431098238,-357110.0,-264011.0,-8716930.0,-2122.0,84226.0,-12994.0
1471539673432752386,-356192.0,-240029.0,-8718245.0,-1810.0,84241.0,-11414.0
1471539673435103853,-335902.0,-227426.0,-8717697.0,-1646.0,83998.0,-12983.0
1471539673436612707,-337469.0,-251208.0,-8753586.0,-3157.0,84709.0,-12154.0
1471539673445616377,-356297.0,-264530.0,-8789369.0,-868.0,83500.0,-12926.0
1471539673446597316,-337928.0,-252335.0,-8752621.0,-4402.0,82527.0,-12114.0
1471539673452683117,-335816.0,-252488.0,-8753650.0,-1934.0,82538.0,-12133.0
1471539673453618771,-336096.0,-254437.0,-8788422.0,-3175.0,78903.0,-12038.0
1471539673468126998,-356473.0,-241978.0,-8753018.0,-3050.0,80605.0,-11320.0
1471539673469129927,-357201.0,-288251.0,-8717145.0,-2415.0,84219.0,-12198.0
1471539673471614113,-377131.0,-253197.0,-8753000.0,-1988.0,83021.0,-12168.0
1471539673473634362,-356014.0,-240851.0,-8753983.0,-1805.0,82787.0,-11360.0
1471539673483624839,-335993.0,-251665.0,-8717912.0,-1939.0,83992.0,-12187.0
1471539673485137706,-337469.0,-251208.0,-8753586.0,-3157.0,84709.0,-12154.0
1471539673487696655,-335993.0,-251665.0,-8717912.0,-1939.0,83992.0,-12187.0
1471539673489346659,-336084.0,-275905.0,-8718128.0,-2232.0,83985.0,-11391.0
1471539673505604366,-356933.0,-264834.0,-8752667.0,-2117.0,82772.0,-12940.0
1471539673507110005,-356933.0,-264834.0,-8752667.0,-2117.0,82772.0,-12940.0
1471539673509766170,-356014.0,-240851.0,-8753983.0,-1805.0,82787.0,-11360.0
1471539673511344336,-336656.0,-251727.0,-8826026.0,-1903.0,83983.0,-12086.0
1471539673519114393,-335993.0,-251665.0,-8717912.0,-1939.0,83992.0,-12187.0
1471539673520618465,-356933.0,-264834.0,-8752667.0,-2117.0,82772.0,-12940.0
1471539673528599222,-335993.0,-251665.0,-8717912.0,-1939.0,83992.0,-12187.0
1471539673529681355,-357379.0,-287428.0,-8681407.0,-2419.0,85673.0,-12252.0
1471539673542624261,-357491.0,-240394.0,-8789656.0,-3023.0,83504.0,-11327.0
1471539673544111499,-376851.0,-251248.0,-8718227.0,-748.0,86656.0,-12262.0
1471539673549607309,-336084.0,-275905.0,-8718128.0,-2232.0,83985.0,-11391.0
1471539673550620521,-336451.0,-252792.0,-8716947.0,-3184.0,81810.0,-12146.0
1471539673565687341,-335907.0,-276728.0,-8753865.0,-2227.0,82532.0,-11337.0
1471539673567233675,-357110.0,-264011.0,-8716930.0,-2122.0,84226.0,-12994.0
1471539673569808904,-356933.0,-264834.0,-8752667.0,-2117.0,82772.0,-12940.0
1471539673571534676,-337928.0,-252335.0,-8752621.0,-4402.0,82527.0,-12114.0
1471539673579254185,-337928.0,-252335.0,-8752621.0,-4402.0,82527.0,-12114.0
1471539673580252107,-336451.0,-252792.0,-8716947.0,-3184.0,81810.0,-12146.0
1471539673588648608,-355457.0,-265291.0,-8716994.0,-900.0,82055.0,-12973.0
1471539673589648503,-335816.0,-252488.0,-8753650.0,-1934.0,82538.0,-12133.0
1471539673602981870,-378785.0,-251918.0,-8752936.0,-3210.0,85192.0,-12189.0
1471539673603973999,-336451.0,-252792.0,-8716947.0,-3184.0,81810.0,-12146.0
1471539673608984460,-337928.0,-252335.0,-8752621.0,-4402.0,82527.0,-12114.0
1471539673610476589,-357110.0,-264011.0,-8716930.0,-2122.0,84226.0,-12994.0
1471539673625484239,-336451.0,-252792.0,-8716947.0,-3184.0,81810.0,-12146.0
1471539673626972107,-336451.0,-252792.0,-8716947.0,-3184.0,81810.0,-12146.0
1471539673637153159,-337378.0,-226969.0,-8753370.0,-2864.0,84715.0,-12950.0
1471539673638671312,-335993.0,-251665.0,-8717912.0,-1939.0,83992.0,-12187.0
1471539673641657280,-357491.0,-240394.0,-8789656.0,-3023.0,83504.0,-11327.0
1471539673643240426,-357201.0,-288251.0,-8717145.0,-2415.0,84219.0,-12198.0
1471539673648555012,-357110.0,-264011.0,-8716930.0,-2122.0,84226.0,-12994.0
1471539673649988479,-355267.0,-287582.0,-8682436.0,48.0,85684.0,-12271.0
1471539673662980085,-356933.0,-264834.0,-8752667.0,-2117.0,82772.0,-12940.0
1471539673665014407,-357379.0,-287428.0,-8681407.0,-2419.0,85673.0,-12252.0
1471539673669875447,-355090.0,-288404.0,-8718174.0,53.0,84231.0,-12217.0
1471539673670872950,-335626.0,-274779.0,-8719093.0,-987.0,86167.0,-11431.0
1471539673685863638,-357668.0,-239572.0,-8753919.0,-3027.0,84958.0,-11381.0
1471539673686901898,-335626.0,-274779.0,-8719093.0,-987.0,86167.0,-11431.0
1471539673689720923,-355634.0,-264468.0,-8681256.0,-904.0,83509.0,-13027.0
1471539673691083046,-336439.0,-274260.0,-8646653.0,-2241.0,86892.0,-11499.0
1471539673708863472,-335804.0,-273956.0,-8683355.0,-991.0,87620.0,-11485.0
1471539673710367828,-335993.0,-251665.0,-8717912.0,-1939.0,83992.0,-12187.0
1471539673714110329,-336171.0,-250843.0,-8682175.0,-1944.0,85445.0,-12241.0
1471539673715610500,-335449.0,-275601.0,-8754830.0,-982.0,84713.0,-11377.0
1471539673723874746,-315886.0,-287542.0,-8717795.0,-2361.0,83736.0,-12163.0
1471539673724856529,-355556.0,-239725.0,-8754948.0,-560.0,84969.0,-11400.0
1471539673729899769,-357024.0,-289074.0,-8752882.0,-2410.0,82766.0,-12144.0
1471539673731042637,-335993.0,-251665.0,-8717912.0,-1939.0,83992.0,-12187.0
1471539673745386859,-336629.0,-251969.0,-8681210.0,-3189.0,83264.0,-12201.0
1471539673746862800,-336171.0,-250843.0,-8682175.0,-1944.0,85445.0,-12241.0
1471539673752495242,-336084.0,-275905.0,-8718128.0,-2232.0,83985.0,-11391.0
1471539673753506574,-335626.0,-274779.0,-8719093.0,-987.0,86167.0,-11431.0
1471539673768361525,-357110.0,-264011.0,-8716930.0,-2122.0,84226.0,-12994.0
1471539673769851587,-357201.0,-288251.0,-8717145.0,-2415.0,84219.0,-12198.0
1471539673773991728,-335993.0,-251665.0,-8717912.0,-1939.0,83992.0,-12187.0
1471539673776552437,-355548.0,-289531.0,-8717209.0,-1192.0,82049.0,-12177.0
1471539673783392261,-357288.0,-263189.0,-8681192.0,-2127.0,85679.0,-13048.0
1471539673784418828,-357465.0,-262366.0,-8645455.0,-2131.0,87133.0,-13103.0
1471539673787473914,-355634.0,-264468.0,-8681256.0,-904.0,83509.0,-13027.0
1471539673789082776,-336084.0,-275905.0,-8718128.0,-2232.0,83985.0,-11391.0
1471539673805440054,-335993.0,-251665.0,-8717912.0,-1939.0,83992.0,-12187.0
1471539673806894663,-335535.0,-250539.0,-8718877.0,-694.0,86173.0,-12227.0
1471539673813063120,-356475.0,-263708.0,-8753632.0,-873.0,84954.0,-12980.0
1471539673814103188,-336262.0,-275083.0,-8682390.0,-2236.0,85439.0,-11445.0
1471539673828378031,-315617.0,-264125.0,-8753317.0,-2064.0,82289.0,-12905.0
1471539673829368207,-355825.0,-263142.0,-8719426.0,-857.0,86416.0,-10659.0
1471539673834082160,-356652.0,-262885.0,-8717895.0,-877.0,86407.0,-13035.0
1471539673835545295,-356933.0,-264834.0,-8752667.0,-2117.0,82772.0,-12940.0
1471539673850893383,-356933.0,-264834.0,-8752667.0,-2117.0,82772.0,-12940.0
1471539673854441946,-335993.0,-251665.0,-8717912.0,-1939.0,83992.0,-12187.0
1471539673854770538,-335902.0,-227426.0,-8717697.0,-1646.0,83998.0,-12983.0
1471539673855281518,-336084.0,-275905.0,-8718128.0,-2232.0,83985.0,-11391.0
1471539673865895935,-335449.0,-275601.0,-8754830.0,-982.0,84713.0,-11377.0
1471539673866908556,-334608.0,-276362.0,-8682454.0,-1014.0,83268.0,-11424.0
1471539673878569286,-336084.0,-275905.0,-8718128.0,-2232.0,83985.0,-11391.0
1471539673880162097,-335449.0,-275601.0,-8754830.0,-982.0,84713.0,-11377.0
1471539673887876598,-377486.0,-251552.0,-8681525.0,-1997.0,85928.0,-12276.0
1471539673889385103,-333795.0,-276881.0,-8754894.0,240.0,82543.0,-11356.0
1471539673893011298,-355267.0,-287582.0,-8682436.0,48.0,85684.0,-12271.0
1471539673894089490,-357110.0,-264011.0,-8716930.0,-2122.0,84226.0,-12994.0
1471539673902528505,-335993.0,-251665.0,-8717912.0,-1939.0,83992.0,-12187.0
1471539673903987706,-355090.0,-288404.0,-8718174.0,53.0,84231.0,-12217.0
1471539673915722593,-335535.0,-250539.0,-8718877.0,-694.0,86173.0,-12227.0
1471539673916709089,-377577.0,-275792.0,-8681740.0,-2290.0,85922.0,-11480.0
1471539673925590245,-356014.0,-240851.0,-8753983.0,-1805.0,82787.0,-11360.0
1471539673926591232,-336171.0,-250843.0,-8682175.0,-1944.0,85445.0,-12241.0
1471539673929860961,-336834.0,-250905.0,-8790288.0,-1907.0,85437.0,-12140.0
1471539673931365426,-357201.0,-288251.0,-8717145.0,-2415.0,84219.0,-12198.0
1471539673948577162,-335993.0,-251665.0,-8717912.0,-1939.0,83992.0,-12187.0
1471539673949629815,-336439.0,-274260.0,-8646653.0,-2241.0,86892.0,-11499.0
1471539673952770039,-376851.0,-251248.0,-8718227.0,-748.0,86656.0,-12262.0
1471539673954256905,-358764.0,-262732.0,-8716866.0,-3345.0,86396.0,-13016.0
1471539673962546000,-336084.0,-275905.0,-8718128.0,-2232.0,83985.0,-11391.0
1471539673964056446,-357288.0,-263189.0,-8681192.0,-2127.0,85679.0,-13048.0
1471539673969524615,-335993.0,-251665.0,-8717912.0,-1939.0,83992.0,-12187.0
1471539673971253352,-356192.0,-240029.0,-8718245.0,-1810.0,84241.0,-11414.0
1471539673985682360,-357110.0,-264011.0,-8716930.0,-2122.0,84226.0,-12994.0
1471539673987137714,-357110.0,-264011.0,-8716930.0,-2122.0,84226.0,-12994.0
1471539673992078577,-356830.0,-262062.0,-8682157.0,-882.0,87861.0,-13089.0
1471539673992604629,-357201.0,-288251.0,-8717145.0,-2415.0,84219.0,-12198.0
1471539674008041950,-355825.0,-263142.0,-8719426.0,-857.0,86416.0,-10659.0
1471539674011524245,-356192.0,-240029.0,-8718245.0,-1810.0,84241.0,-11414.0
1471539674013145566,-357379.0,-287428.0,-8681407.0,-2419.0,85673.0,-12252.0
1471539674014725804,-356014.0,-240851.0,-8753983.0,-1805.0,82787.0,-11360.0
1471539674022544909,-335993.0,-251665.0,-8717912.0,-1939.0,83992.0,-12187.0
1471539674024020743,-335449.0,-275601.0,-8754830.0,-982.0,84713.0,-11377.0
1471539674029034532,-64447.0,243640.0,-9258950.0,-34840.0,110792.0,-11626.0
1471539674030253604,-298092.0,-152061.0,-8790515.0,-4353.0,87147.0,-12915.0
1471539674045532072,-336925.0,-275145.0,-8790504.0,-2200.0,85430.0,-11344.0
1471539674049077718,-190455.0,301493.0,-9461559.0,-61323.0,107528.0,-12043.0
1471539674050194796,-278798.0,-187418.0,-8717958.0,-6029.0,87617.0,-12960.0
1471539674051141326,-311692.0,-4481.0,-8821720.0,-19802.0,90023.0,-12814.0
1471539674068006244,-326938.0,53123.0,-8859984.0,-15373.0,86680.0,-11201.0
1471539674069496136,-434100.0,-130994.0,-8963295.0,-18960.0,85628.0,-11117.0
1471539674073147029,-294841.0,8151.0,-9036370.0,-22033.0,89752.0,-14162.0
1471539674074655647,-307272.0,153567.0,-9211490.0,-36219.0,88995.0,-13884.0
1471539674083013562,-320393.0,68712.0,-9179532.0,-27415.0,90708.0,-12434.0
1471539674085224375,-335114.0,215103.0,-9317886.0,-44072.0,91394.0,-12191.0
1471539674088990752,-258476.0,364250.0,-9426883.0,-49513.0,94793.0,-12049.0
1471539674090514689,-235502.0,352522.0,-9319466.0,-47212.0,94564.0,-12941.0
1471539674105559461,-354586.0,251284.0,-9354706.0,-42401.0,92377.0,-12201.0
1471539674107021150,-218805.0,316432.0,-9389730.0,-51314.0,93560.0,-12812.0
1471539674110241848,-287045.0,400477.0,-9493793.0,-57726.0,94270.0,-14304.0
1471539674113852485,-210673.0,547936.0,-9566654.0,-65641.0,94768.0,-11760.0
1471539674128212972,-246378.0,401386.0,-9531648.0,-58870.0,94512.0,-11861.0
1471539674129568012,-308082.0,434604.0,-9565888.0,-59742.0,91615.0,-11824.0
1471539674133930647,-406958.0,562902.0,-9528800.0,-57042.0,87802.0,-12697.0
1471539674134915377,-638928.0,605617.0,-9839241.0,-68958.0,64284.0,-12924.0
1471539674141789558,-394005.0,294684.0,-9533843.0,-41826.0,85613.0,-11181.0
1471539674143317066,-356755.0,245312.0,-9675250.0,-46048.0,81454.0,-11715.0
1471539674150346595,-568989.0,-256304.0,-10076702.0,-5453.0,64036.0,-12341.0
1471539674152953675,-821485.0,-999661.0,-10725985.0,43216.0,47734.0,-21533.0
1471539674164880568,-733453.0,-739056.0,-10760015.0,26803.0,53784.0,-21405.0
1471539674166351010,-866428.0,-382216.0,-10897271.0,12632.0,47298.0,-21180.0
1471539674169549569,-934117.0,-251076.0,-11001470.0,5581.0,45846.0,-21848.0
1471539674171090387,-949656.0,-600891.0,-11146772.0,16070.0,48906.0,-23412.0
1471539674187632056,-869175.0,-571002.0,-11330212.0,17805.0,55916.0,-24093.0
1471539674188676190,-778302.0,-264277.0,-11401144.0,3224.0,58364.0,-23105.0
1471539674192784489,-875012.0,-47967.0,-11538118.0,-13888.0,57862.0,-22904.0
1471539674194275831,-765328.0,101678.0,-11679387.0,-29140.0,59280.0,-22597.0
1471539674202134428,-568167.0,110675.0,-11934281.0,-34906.0,66246.0,-22273.0
1471539674203626931,-451939.0,287134.0,-11937003.0,-42462.0,73527.0,-20659.0
1471539674212195209,-518618.0,323929.0,-12041960.0,-45767.0,76408.0,-22995.0
1471539674215351657,-606271.0,419333.0,-12363611.0,-49509.0,77360.0,-23533.0
1471539674225018931,-461880.0,340982.0,-12512055.0,-45354.0,82899.0,-24195.0
1471539674229871917,-462386.0,268803.0,-12763597.0,-42482.0,83585.0,-26362.0
1471539674232363825,-586507.0,264126.0,-13192697.0,-40072.0,80650.0,-28397.0
1471539674233985129,-670575.0,188779.0,-13514916.0,-39745.0,79393.0,-28131.0
1471539674247657724,-494278.0,329423.0,-13876215.0,-45128.0,84450.0,-30873.0
1471539674252488803,-344943.0,509133.0,-14056423.0,-58739.0,94824.0,-31437.0
1471539674253605930,-294802.0,574261.0,-14451126.0,-67622.0,99846.0,-31823.0
1471539674256010928,-226077.0,728159.0,-14631279.0,-79166.0,111191.0,-31679.0
1471539674270201758,-116030.0,953799.0,-14775299.0,-92253.0,119171.0,-31486.0
1471539674271272398,29999.0,1157798.0,-14954764.0,-110486.0,129537.0,-30431.0
1471539674272695791,175945.0,1408590.0,-15097663.0,-130608.0,137014.0,-28566.0
1471539674275493128,180687.0,1568607.0,-15236936.0,-148305.0,139636.0,-27537.0
1471539674285168687,257048.0,1744142.0,-15348150.0,-153410.0,147403.0,-25877.0
1471539674289511207,274476.0,1781898.0,-15418733.0,-155390.0,148600.0,-28176.0
1471539674292040741,240005.0,1679395.0,-15671628.0,-147954.0,141090.0,-27121.0
1471539674294496048,89556.0,1523462.0,-16032800.0,-131401.0,130691.0,-26868.0
1471539674307615227,-26176.0,1394582.0,-16319845.0,-121913.0,122689.0,-27428.0
1471539674319823211,-116591.0,1178875.0,-16753177.0,-107234.0,110808.0,-26234.0
1471539674320875565,-224080.0,929609.0,-17152460.0,-85630.0,104986.0,-27601.0
1471539674323378169,-353234.0,642631.0,-17550011.0,-65747.0,97210.0,-28938.0
1471539674330043924,-364143.0,479382.0,-17984084.0,-52821.0,88718.0,-29309.0
1471539674331669805,-458944.0,413476.0,-18274113.0,-42522.0,84855.0,-28339.0
1471539674333015357,-479456.0,374103.0,-18490203.0,-42927.0,80722.0,-25711.0
1471539674335832574,-480472.0,397417.0,-18526227.0,-45077.0,79272.0,-24058.0
1471539674345165497,-515824.0,370059.0,-18563652.0,-39262.0,76147.0,-23260.0
1471539674357337364,-554466.0,388217.0,-18525813.0,-40297.0,67212.0,-21605.0
1471539674358016396,-670551.0,425281.0,-18741111.0,-36138.0,53458.0,-18161.0
1471539674360356407,-807729.0,257887.0,-18846437.0,-30886.0,42062.0,-16445.0
1471539674367577086,-1024972.0,210885.0,-18953412.0,-22994.0,33864.0,-14066.0
1471539674372360367,-1103609.0,111359.0,-19206494.0,-16811.0,33359.0,-13130.0
1471539674373351423,-1139098.0,10439.0,-19496027.0,-9348.0,28747.0,-12082.0
1471539674375868383,-1139070.0,-35870.0,-19822226.0,-4887.0,33074.0,-12663.0
1471539674382050813,-1097345.0,-105087.0,-20076348.0,529.0,37641.0,-14877.0
1471539674385844768,-1077470.0,-139658.0,-20330125.0,2674.0,40278.0,-14678.0
1471539674389849322,-999662.0,-113514.0,-20582081.0,-538.0,40007.0,-15151.0
1471539674394906862,-921291.0,-61742.0,-20763877.0,-3447.0,42658.0,-14151.0
1471539674405026072,-842151.0,14594.0,-20766437.0,-7334.0,46058.0,-11741.0
1471539674409349777,-783315.0,78065.0,-20840453.0,-10150.0,48966.0,-10071.0
1471539674413874939,-743202.0,152716.0,-20879128.0,-11619.0,51406.0,-7660.0
1471539674414320560,-765998.0,163621.0,-21022283.0,-13916.0,50182.0,-6714.0
1471539674427691434,-760480.0,114378.0,-20989098.0,-8349.0,49475.0,-5193.0
1471539674432649754,-795281.0,-8451.0,-21026316.0,-31.0,48500.0,-6021.0
1471539674434129103,-874187.0,-132160.0,-21240878.0,7036.0,47255.0,-9073.0
1471539674436629860,-1041398.0,-297451.0,-21390798.0,27108.0,43669.0,-5199.0
1471539674442277972,-1093965.0,-481232.0,-21682451.0,40915.0,43649.0,-5066.0
1471539674446121005,-1126773.0,-628213.0,-21865729.0,52694.0,43398.0,-5003.0
1471539674457753401,-1126643.0,-678358.0,-22153360.0,54638.0,40464.0,-5496.0
1471539674458798927,-1149817.0,-622106.0,-22368627.0,49264.0,34169.0,-1222.0
1471539674465273475,-1171883.0,-543197.0,-22547040.0,44155.0,24982.0,2264.0
1471539674469639271,-1041902.0,-452484.0,-22650636.0,30611.0,27586.0,-1434.0
1471539674470654739,-965991.0,-327882.0,-22723146.0,23628.0,30251.0,-510.0
1471539674473648042,-909545.0,-238634.0,-22795352.0,19862.0,35328.0,-2033.0
1471539674487812058,-877521.0,-137444.0,-22865833.0,11291.0,40632.0,-2745.0
1471539674499640094,-983374.0,-80023.0,-22825738.0,6937.0,38939.0,-3589.0
1471539674501089716,-1023492.0,-61408.0,-22823573.0,4683.0,30721.0,-1901.0
1471539674503632487,-1116510.0,-132670.0,-22930282.0,12401.0,16706.0,-937.0
1471539674511508895,-1168308.0,-270923.0,-23039085.0,24235.0,10899.0,-2462.0
1471539674512827490,-1247760.0,-398269.0,-23252283.0,27588.0,3117.0,-3017.0
1471539674514265810,-1347239.0,-415692.0,-23503121.0,32287.0,-1483.0,-3615.0
1471539674515635149,-1330653.0,-398139.0,-23649693.0,31334.0,7695.0,-2797.0
1471539674525293861,-1295328.0,-370540.0,-23757084.0,26805.0,11540.0,-3481.0
1471539674529135170,-1258740.0,-270798.0,-23975004.0,23229.0,15412.0,-1700.0
1471539674530633624,-1204963.0,-156958.0,-24083170.0,16090.0,21210.0,-1591.0
1471539674535642611,-1116526.0,-15581.0,-24406840.0,4459.0,30843.0,-2065.0
1471539674547837367,-1012987.0,98356.0,-24519772.0,7243.0,36203.0,-1996.0
1471539674552135790,-920098.0,188818.0,-24627775.0,-2602.0,41499.0,-1037.0
1471539674553633610,-832826.0,354089.0,-24806916.0,-17674.0,50417.0,-27.0
1471539674556619906,-705244.0,521150.0,-24949439.0,-32718.0,60297.0,-1411.0
1471539674570289618,-701588.0,594323.0,-25023226.0,-26874.0,61784.0,-3791.0
1471539674571335827,-629704.0,625406.0,-25021997.0,-36298.0,69484.0,-4564.0
1471539674572749189,-635885.0,674587.0,-25163295.0,-41829.0,70183.0,-5984.0
1471539674575623050,-749760.0,664201.0,-25342282.0,-33365.0,57875.0,-5792.0
1471539674585288040,-846427.0,590797.0,-25338421.0,-33088.0,39491.0,-2434.0
1471539674597127206,-988731.0,570128.0,-25334252.0,-34702.0,30297.0,-806.0
1471539674598148761,-1004264.0,554751.0,-25444071.0,-29916.0,26201.0,887.0
1471539674601345498,-1020887.0,587246.0,-25480054.0,-27044.0,20662.0,960.0
1471539674607795228,-1014092.0,629363.0,-25439245.0,-40130.0,28346.0,-1447.0
1471539674612703117,-962596.0,694373.0,-25472905.0,-50373.0,32666.0,-2149.0
1471539674613725541,-899091.0,780132.0,-25620239.0,-47953.0,32696.0,-1204.0
1471539674616162825,-748798.0,962115.0,-25586652.0,-61594.0,47447.0,345.0
1471539674631587504,-622556.0,1175622.0,-25548294.0,-82260.0,53716.0,2051.0
1471539674632096141,-503212.0,1350083.0,-25586315.0,-86142.0,57376.0,1345.0
1471539674632400142,-449951.0,1509347.0,-25512133.0,-97701.0,57383.0,2191.0
1471539674634854508,-379331.0,1610854.0,-25400717.0,-111221.0,60745.0,1404.0
1471539674645010568,-392636.0,1597592.0,-25367147.0,-102785.0,60296.0,507.0
1471539674648853973,-476525.0,1432775.0,-25262440.0,-82746.0,52846.0,-495.0
1471539674650346286,-583491.0,1134346.0,-25335318.0,-63101.0,44846.0,-2907.0
1471539674672446833,-720574.0,735638.0,-25447823.0,-31137.0,33728.0,-4566.0
1471539674673472683,-825180.0,389179.0,-25664943.0,-5898.0,26441.0,-10062.0
1471539674674848822,-862418.0,242804.0,-25952244.0,3410.0,26154.0,-14631.0
1471539674676359021,-866823.0,148563.0,-26421631.0,3638.0,31166.0,-13468.0
1471539674680437991,-697538.0,180495.0,-26502812.0,11644.0,39432.0,-11882.0
1471539674690075514,-584681.0,335032.0,-26360805.0,65.0,50328.0,-9630.0
1471539674691582013,-438027.0,756046.0,-26144654.0,-22999.0,59332.0,-6527.0
1471539674694162554,-277321.0,1143592.0,-25890525.0,-52646.0,71683.0,-3439.0
1471539674700846881,-176127.0,1468108.0,-25744401.0,-79389.0,82571.0,502.0
1471539674705051492,-81137.0,1781736.0,-25389171.0,-89094.0,98140.0,3240.0
1471539674708614307,17081.0,1897922.0,-24995590.0,-96315.0,106405.0,5248.0
1471539674711564682,77094.0,1962098.0,-24672826.0,-100495.0,110064.0,6549.0
1471539674715544584,66302.0,1854557.0,-24462524.0,-89562.0,114698.0,8567.0
1471539674727813022,2428.0,1607893.0,-24358529.0,-68060.0,111334.0,6724.0
1471539674730119857,-336663.0,692981.0,-24681590.0,-9342.0,74506.0,-1036.0
1471539674734070331,-635584.0,259435.0,-25146549.0,27037.0,50775.0,-8663.0
1471539674750734480,-803238.0,-81763.0,-25720599.0,49954.0,34025.0,-12922.0
1471539674751904028,-845079.0,-204215.0,-26078568.0,53427.0,32994.0,-15786.0
1471539674754448245,-779760.0,-128673.0,-26323920.0,35996.0,32669.0,-17737.0
1471539674755835208,-698798.0,157654.0,-26356114.0,11270.0,40871.0,-15993.0
1471539674765204999,-657575.0,417250.0,-26314031.0,-12631.0,45926.0,-15889.0
1471539674766273850,-531238.0,867352.0,-26198383.0,-56304.0,61362.0,-13413.0
1471539674768544426,-397098.0,1237653.0,-26078238.0,-112074.0,82999.0,-11704.0
1471539674769570008,-147618.0,1788527.0,-25782127.0,-175423.0,119185.0,-8652.0
1471539674787719157,-37637.0,2034508.0,-25269897.0,-214396.0,137745.0,-8211.0
1471539674788671375,-84973.0,2106998.0,-25049789.0,-223494.0,138228.0,-8384.0
1471539674792565817,-94928.0,1949394.0,-24803279.0,-213174.0,139950.0,-4766.0
1471539674794838283,-99428.0,1739031.0,-24375372.0,-199859.0,133703.0,-2016.0
1471539674809852887,-183857.0,1499042.0,-24232176.0,-181990.0,121144.0,-2958.0
1471539674811378683,-353031.0,1236058.0,-24087266.0,-164518.0,113890.0,-5612.0
1471539674819219776,-479691.0,999715.0,-23909548.0,-145439.0,109802.0,-6745.0
1471539674821854899,-568959.0,763225.0,-24091530.0,-128660.0,103741.0,-7468.0
1471539674825292430,-563888.0,548054.0,-23983746.0,-119070.0,108057.0,-12441.0
1471539674826252604,-602397.0,401072.0,-24197641.0,-112262.0,106314.0,-17038.0
1471539674828603223,-705569.0,359757.0,-24554248.0,-110306.0,101680.0,-19096.0
1471539674829752121,-677577.0,413860.0,-25055516.0,-118111.0,109101.0,-22605.0
1471539674847778375,-643981.0,439725.0,-25088537.0,-126385.0,109308.0,-23276.0
1471539674848817519,-580776.0,441016.0,-25836430.0,-142111.0,106016.0,-27098.0
1471539674852123354,-590692.0,519725.0,-25799263.0,-151042.0,116157.0,-27211.0
1471539674853612327,-496238.0,606399.0,-25906931.0,-162135.0,114928.0,-23774.0
1471539674870283113,-425084.0,758878.0,-25402768.0,-178819.0,123420.0,-19438.0
1471539674871791261,-344025.0,882455.0,-24973511.0,-185939.0,124691.0,-14212.0
1471539674874615614,-285313.0,971368.0,-24254756.0,-196085.0,129102.0,-9288.0
1471539674875640751,-286841.0,1114511.0,-23604862.0,-206828.0,124818.0,-5009.0
1471539674884796285,-257190.0,1264235.0,-23605007.0,-220943.0,130862.0,-215.0
1471539674886257893,-168929.0,1363854.0,-22959261.0,-218620.0,132163.0,-1598.0
1471539674888285612,-190455.0,1343176.0,-23637528.0,-237160.0,137096.0,-93.0
1471539674889756564,-132506.0,1367415.0,-22596181.0,-224858.0,135299.0,-4279.0
1471539674915751827,-122063.0,1395736.0,-24137516.0,-247402.0,139671.0,-3486.0
1471539674916781880,-49677.0,1448930.0,-23917915.0,-259097.0,143031.0,-5177.0
1471539674918262315,-8934.0,1526492.0,-23523507.0,-260709.0,149850.0,-5607.0
1471539674919853932,56358.0,1654951.0,-23410718.0,-278850.0,157548.0,-7214.0
1471539674931670600,118910.0,1854292.0,-23223414.0,-302304.0,161624.0,-8800.0
1471539674932245675,153110.0,2100283.0,-22464939.0,-316749.0,165573.0,-7856.0
1471539674934611165,330622.0,2266755.0,-21746331.0,-330768.0,172884.0,-5239.0
1471539674938149949,370457.0,2465772.0,-20810254.0,-338463.0,179761.0,-5344.0
1471539674944887520,473077.0,2622278.0,-20409607.0,-362476.0,192063.0,-5629.0
1471539674946328560,494296.0,2724982.0,-17967725.0,-334916.0,182500.0,-10391.0
1471539674948153635,731880.0,2894368.0,-18970524.0,-377889.0,210077.0,-9320.0
1471539674949154731,787181.0,2963397.0,-16860498.0,-348148.0,226117.0,-12541.0
1471539674967837419,1157823.0,3051074.0,-17226010.0,-376229.0,276264.0,-14000.0
1471539674968879686,1117609.0,3132921.0,-15789611.0,-363420.0,274292.0,-14673.0
1471539674972659005,1384634.0,3319742.0,-16399564.0,-413726.0,330400.0,-14291.0
1471539674973697991,1581972.0,3376032.0,-15643241.0,-363820.0,386798.0,-14512.0
1471539674998288678,2576963.0,3093843.0,-16744777.0,-326594.0,515635.0,-15709.0
1471539674999907982,3994528.0,1792433.0,-20757242.0,-44256.0,830199.0,-20120.0
1471539675000803579,3295470.0,1528691.0,-15217700.0,-95326.0,508097.0,-16048.0
1471539675002418944,3079526.0,673821.0,-20836792.0,269232.0,710647.0,-18433.0
1471539675013356568,2971613.0,-299182.0,-19027284.0,331896.0,583376.0,-15713.0
1471539675014923778,1846545.0,362595.0,-16565594.0,210101.0,325037.0,-17314.0
1471539675015872306,1286345.0,-191523.0,-18679942.0,431732.0,236758.0,-11585.0
1471539675017355670,496255.0,-514078.0,-17153934.0,387024.0,161636.0,-10503.0
1471539675036129415,711920.0,-171977.0,-15242016.0,298363.0,122813.0,-11658.0
1471539675037157040,285263.0,75930.0,-15466472.0,296260.0,22298.0,-11113.0
1471539675038572210,-288914.0,665996.0,-13992831.0,185379.0,-61063.0,-11592.0
1471539675039690608,-279232.0,1004162.0,-13161841.0,152240.0,-23803.0,-11047.0
1471539675050147927,-252907.0,1165398.0,-12731039.0,139273.0,1849.0,-11695.0
1471539675051664789,660057.0,1319266.0,-12625764.0,151837.0,88263.0,-14095.0
1471539675054944632,956032.0,1417539.0,-12153095.0,100114.0,135483.0,-12982.0
1471539675058038011,1026695.0,1517628.0,-12654707.0,137276.0,209625.0,-12252.0
1471539675065052519,1942276.0,1109663.0,-13490719.0,187395.0,442201.0,-17689.0
1471539675066542740,1968332.0,1686558.0,-11781763.0,19007.0,322819.0,-15395.0
1471539675068031661,3121469.0,2043574.0,-13649935.0,-19491.0,604971.0,-14946.0
1471539675069109952,3213412.0,3180851.0,-11951493.0,-193306.0,532633.0,-16421.0
1471539675087363951,2836683.0,3708878.0,-12375931.0,-233941.0,579975.0,-14261.0
1471539675088801059,3608818.0,4143450.0,-13038498.0,-378125.0,675854.0,-14048.0
1471539675091953493,3005553.0,4898819.0,-12960200.0,-497584.0,564346.0,-15153.0
1471539675093617964,3125006.0,5074220.0,-12514168.0,-520045.0,523726.0,-13947.0
1471539675110364668,2601863.0,5441981.0,-12526254.0,-544361.0,486988.0,-13591.0
1471539675112254707,2444774.0,5278306.0,-12157964.0,-528129.0,440618.0,-15101.0
1471539675114711759,2598386.0,4852132.0,-11711571.0,-471714.0,436667.0,-15022.0
1471539675115631535,2884102.0,4637618.0,-11299850.0,-428574.0,436103.0,-15562.0
1471539675125303132,2825430.0,4232223.0,-11296750.0,-360942.0,480281.0,-15988.0
1471539675126856724,3268189.0,3526304.0,-11111608.0,-232435.0,536746.0,-16128.0
1471539675128296802,3026189.0,3449586.0,-10740430.0,-207748.0,456850.0,-14930.0
1471539675129609865,3138393.0,2732097.0,-11650809.0,-42369.0,534912.0,-13304.0
1471539675147583345,2704608.0,1972003.0,-11414854.0,89666.0,423839.0,-14918.0
1471539675148574962,1879985.0,1456858.0,-11471003.0,136812.0,344347.0,-15464.0
1471539675152849076,1704794.0,689054.0,-11905071.0,293924.0,256551.0,-13652.0
1471539675154857796,1101815.0,687691.0,-11807571.0,288398.0,192716.0,-12414.0
1471539675170215485,1121132.0,656606.0,-11215622.0,270608.0,154715.0,-13057.0
1471539675171745437,660266.0,846133.0,-11084614.0,247799.0,120839.0,-12834.0
1471539675174982289,584196.0,942720.0,-10888653.0,221744.0,98284.0,-12534.0
1471539675177476892,509737.0,1023650.0,-10880151.0,204178.0,92432.0,-11574.0
1471539675186183783,465417.0,666441.0,-10811458.0,223140.0,85158.0,-10911.0
1471539675187616007,426299.0,477463.0,-10888696.0,249146.0,76498.0,-13327.0
1471539675192717476,328420.0,384473.0,-10957259.0,252857.0,66082.0,-13999.0
1471539675194236075,304909.0,506292.0,-11022303.0,242072.0,46008.0,-12004.0
1471539675207772220,281907.0,726617.0,-10759617.0,212612.0,47416.0,-12049.0
1471539675208828693,242280.0,972829.0,-10564855.0,182270.0,30934.0,-11784.0
1471539675219588622,166085.0,1122795.0,-10516110.0,160598.0,17828.0,-13104.0
1471539675220597940,44183.0,1067696.0,-10403144.0,159751.0,10560.0,-13970.0
1471539675230274466,-43934.0,853883.0,-10332547.0,174275.0,1621.0,-13288.0
1471539675231826579,-93214.0,664045.0,-10260391.0,185433.0,-9988.0,-13308.0
1471539675234097239,-206888.0,467333.0,-10334184.0,198930.0,-9274.0,-14218.0
1471539675235569175,-95142.0,272627.0,-10273208.0,215102.0,7667.0,-13772.0
1471539675245296358,-30501.0,74701.0,-10241801.0,223780.0,19243.0,-15563.0
1471539675246694612,34244.0,-52657.0,-9668254.0,225769.0,26512.0,-15376.0
1471539675248582413,120784.0,-160737.0,-8884727.0,230423.0,46640.0,-12411.0
1471539675249580422,146495.0,-90798.0,-8353436.0,236073.0,63909.0,-9232.0
1471539675275799870,330317.0,-222792.0,-7794352.0,260334.0,83128.0,-7728.0
1471539675277279139,478393.0,-337824.0,-7412716.0,289749.0,91231.0,-9136.0
1471539675278741695,479523.0,-548729.0,-7311734.0,313022.0,84995.0,-8535.0
1471539675279809047,391320.0,-737479.0,-7205184.0,327834.0,77516.0,-8703.0
1471539675290759433,239839.0,-662006.0,-7158370.0,315026.0,65393.0,-10157.0
1471539675292377106,126708.0,-428726.0,-7245497.0,273439.0,48830.0,-10370.0
1471539675294568479,8145.0,-171266.0,-7401761.0,225996.0,31514.0,-11253.0
1471539675295575212,-278256.0,174885.0,-7586943.0,172087.0,5973.0,-12850.0
1471539675304249752,-428542.0,389275.0,-7498936.0,137555.0,1540.0,-12691.0
1471539675305694972,-489421.0,435349.0,-7522402.0,113395.0,-3882.0,-14012.0
1471539675320223371,-503021.0,576321.0,-7585549.0,94193.0,-13357.0,-13673.0
1471539675321744524,-511954.0,738337.0,-7681379.0,61668.0,-9357.0,-14961.0
1471539675327735043,-356299.0,916846.0,-7897946.0,36950.0,18857.0,-14058.0
1471539675328780724,-162536.0,1073058.0,-8077082.0,9501.0,48016.0,-14736.0
1471539675332610209,-32217.0,1140419.0,-8289038.0,-21547.0,72056.0,-13734.0
1471539675334582486,87725.0,1094738.0,-8539324.0,-41649.0,90546.0,-12710.0
1471539675350778574,22702.0,1010181.0,-8646386.0,-43949.0,93405.0,-11085.0
1471539675352310120,-55209.0,838698.0,-8464598.0,-38831.0,92898.0,-12915.0
1471539675354615407,-175677.0,641318.0,-8534340.0,-33981.0,91397.0,-13729.0
1471539675356072060,-231775.0,479394.0,-8570391.0,-28608.0,86295.0,-12112.0
1471539675364751395,-288417.0,341405.0,-8569525.0,-24193.0,80472.0,-11306.0
1471539675365732363,-560337.0,198772.0,-8488886.0,-12699.0,54123.0,-14449.0
1471539675372780814,-847895.0,-84838.0,-8193406.0,15543.0,-4315.0,-13528.0
1471539675374265651,-922242.0,-355798.0,-8120219.0,24420.0,-9195.0,-14426.0
1471539675388283391,-926114.0,-399832.0,-8193862.0,22667.0,-1240.0,-12871.0
1471539675389336074,-987250.0,-291683.0,-8121775.0,22679.0,252.0,-13009.0
1471539675392608875,-994178.0,-575398.0,-7906211.0,36351.0,-8228.0,-14776.0
1471539675394584050,-923988.0,-637547.0,-7692918.0,42997.0,-13274.0,-14119.0
1471539675412253041,-831114.0,-609015.0,-8273881.0,26321.0,31576.0,-14000.0
1471539675413729699,-669725.0,-665335.0,-8318797.0,30712.0,54298.0,-14202.0
1471539675415088969,-580424.0,-879118.0,-8505007.0,43021.0,59105.0,-14125.0
1471539675418501820,-481578.0,-1028904.0,-8687525.0,43784.0,67987.0,-14798.0
1471539675424396994,-601937.0,-1031641.0,-8650930.0,47308.0,68730.0,-14955.0
1471539675425706298,-681266.0,-1084921.0,-8685926.0,49065.0,63889.0,-13336.0
1471539675432883347,-698138.0,-1026279.0,-8579310.0,50986.0,61997.0,-11859.0
1471539675433960466,-456540.0,-352950.0,-8714919.0,1602.0,81069.0,-13836.0
1471539675447437628,-337463.0,-180176.0,-8716803.0,-4754.0,81826.0,-12139.0
1471539675448902644,-315619.0,-143287.0,-8754273.0,-3028.0,82327.0,-12114.0
1471539675454733655,-294495.0,-202477.0,-8718132.0,-1300.0,83521.0,-13744.0
1471539675455749346,-295341.0,-251018.0,-8826676.0,-1849.0,83500.0,-12051.0
1471539675470941157,-255786.0,-152693.0,-8899342.0,-3041.0,84485.0,-12758.0
1471539675472072639,-275866.0,-117058.0,-8754644.0,-3905.0,84021.0,-12896.0
1471539675482726251,-335358.0,-251362.0,-8754615.0,-689.0,84720.0,-12173.0
1471539675483774794,-337928.0,-252335.0,-8752621.0,-4402.0,82527.0,-12114.0
1471539675486244325,-316261.0,-214623.0,-8754353.0,-2681.0,84481.0,-12142.0
1471539675487766700,-377676.0,-229261.0,-8716082.0,-2945.0,82299.0,-12977.0
1471539675492941269,-398426.0,-264720.0,-8716279.0,-2176.0,84709.0,-13029.0
1471539675494381074,-336190.0,-300407.0,-8789252.0,-1290.0,83245.0,-12903.0
1471539675507446168,-256964.0,-249899.0,-8824766.0,-4283.0,82997.0,-14373.0
1471539675508890101,-317180.0,-238605.0,-8753038.0,-2994.0,84466.0,-13722.0
1471539675511737698,-355837.0,-241674.0,-8789720.0,-1800.0,81333.0,-11306.0
1471539675513237089,-358213.0,-215636.0,-8717001.0,-3984.0,84236.0,-12191.0
1471539675531457237,-337005.0,-179050.0,-8717768.0,-3509.0,84008.0,-12180.0
1471539675532416422,-336080.0,-226603.0,-8681960.0,-1651.0,85452.0,-13037.0
1471539675534238338,-417613.0,-325699.0,-8716756.0,-477.0,84941.0,-12264.0
1471539675535735189,-396779.0,-337032.0,-8753126.0,644.0,85420.0,-13022.0
1471539675544458791,-378232.0,-325659.0,-8752115.0,-2886.0,82993.0,-12156.0
1471539675545357843,-357484.0,-311930.0,-8752532.0,-1478.0,84933.0,-13764.0
1471539675552424691,-354912.0,-289227.0,-8753911.0,57.0,82777.0,-12163.0
1471539675553856113,-356566.0,-287947.0,-8753847.0,-1165.0,84947.0,-12184.0
1471539675567425053,-335710.0,-227986.0,-8682526.0,-2876.0,83278.0,-10621.0
1471539675569523971,-315054.0,-238497.0,-8683158.0,-1761.0,85211.0,-11433.0
1471539675572352194,-315598.0,-214561.0,-8646240.0,-2718.0,84489.0,-12243.0
1471539675573793483,-336729.0,-226403.0,-8719164.0,-2849.0,86177.0,-10628.0
1471539675591129560,-296988.0,-178707.0,-8789829.0,-4668.0,82788.0,-12058.0
1471539675592474713,-317815.0,-238909.0,-8716335.0,-4243.0,83738.0,-13736.0
1471539675594787807,-356388.0,-288770.0,-8789585.0,-1160.0,83494.0,-12130.0
1471539675595824034,-377223.0,-277437.0,-8753215.0,-2281.0,83015.0,-11372.0
1471539675613443910,-378036.0,-276918.0,-8680775.0,-3535.0,83740.0,-11440.0
1471539675614480106,-357110.0,-264011.0,-8716930.0,-2122.0,84226.0,-12994.0
1471539675615425221,-336542.0,-277032.0,-8717163.0,-3476.0,81804.0,-11350.0
1471539675616490186,-357024.0,-289074.0,-8752882.0,-2410.0,82766.0,-12144.0
1471539675636031126,-336451.0,-252792.0,-8716947.0,-3184.0,81810.0,-12146.0
1471539675636941692,-315972.0,-262480.0,-8681842.0,-2073.0,85196.0,-13013.0
1471539675638460394,-356846.0,-289896.0,-8788620.0,-2405.0,81312.0,-12090.0
1471539675639680210,-355470.0,-264787.0,-8790901.0,-848.0,83509.0,-10550.0
1471539675650961363,-375924.0,-277071.0,-8681804.0,-1067.0,83751.0,-11459.0
1471539675652393823,-377111.0,-324471.0,-8644966.0,-1677.0,85184.0,-12297.0
1471539675654784368,-357115.0,-313314.0,-8753098.0,-2703.0,82759.0,-11348.0
1471539675655816810,-398431.0,-314023.0,-8752448.0,-2756.0,83242.0,-11383.0
1471539675673371064,-377577.0,-275792.0,-8681740.0,-2290.0,85922.0,-11480.0
1471539675674933122,-376764.0,-276311.0,-8754180.0,-1036.0,85196.0,-11412.0
1471539675677315393,-335993.0,-251665.0,-8717912.0,-1939.0,83992.0,-12187.0
1471539675678277926,-357846.0,-238749.0,-8718181.0,-3032.0,86411.0,-11436.0
1471539675687458203,-356369.0,-239206.0,-8682508.0,-1814.0,85694.0,-11468.0
1471539675688946017,-335993.0,-251665.0,-8717912.0,-1939.0,83992.0,-12187.0
1471539675692592921,-357379.0,-287428.0,-8681407.0,-2419.0,85673.0,-12252.0
1471539675693432649,-356743.0,-287125.0,-8718110.0,-1170.0,86401.0,-12239.0
1471539675710649416,-357201.0,-288251.0,-8717145.0,-2415.0,84219.0,-12198.0
1471539675712110042,-377577.0,-275792.0,-8681740.0,-2290.0,85922.0,-11480.0
1471539675715946905,-336439.0,-274260.0,-8646653.0,-2241.0,86892.0,-11499.0
1471539675717436203,-377400.0,-276614.0,-8717478.0,-2285.0,84468.0,-11426.0
1471539675733161852,-357379.0,-287428.0,-8681407.0,-2419.0,85673.0,-12252.0
1471539675734577752,-375643.0,-275122.0,-8647032.0,173.0,87387.0,-11553.0
1471539675736978139,-335993.0,-251665.0,-8717912.0,-1939.0,83992.0,-12187.0
1471539675738433081,-314596.0,-237370.0,-8684123.0,-516.0,87393.0,-11474.0
1471539675747579804,-336439.0,-274260.0,-8646653.0,-2241.0,86892.0,-11499.0
1471539675748611109,-336720.0,-276209.0,-8681425.0,-3481.0,83257.0,-11405.0
1471539675751489493,-336720.0,-276209.0,-8681425.0,-3481.0,83257.0,-11405.0
1471539675753030727,-355739.0,-288204.0,-8755378.0,-1145.0,84956.0,-9808.0
1471539675770707910,-377577.0,-275792.0,-8681740.0,-2290.0,85922.0,-11480.0
1471539675772632545,-356361.0,-289012.0,-8644769.0,-2446.0,82774.0,-12245.0
1471539675775436071,-377664.0,-250729.0,-8645787.0,-2002.0,87382.0,-12330.0
1471539675776472142,-336084.0,-275905.0,-8718128.0,-2232.0,83985.0,-11391.0
1471539675793274245,-336629.0,-251969.0,-8681210.0,-3189.0,83264.0,-12201.0
1471539675794827585,-336348.0,-250020.0,-8646437.0,-1948.0,86899.0,-12295.0
1471539675797088835,-335993.0,-251665.0,-8717912.0,-1939.0,83992.0,-12187.0
1471539675811133828,-398694.0,-288138.0,-8680757.0,-2473.0,86156.0,-12287.0
1471539675812584077,-357201.0,-288251.0,-8717145.0,-2415.0,84219.0,-12198.0
1471539675820101776,-357837.0,-288555.0,-8680442.0,-3664.0,83491.0,-12212.0
1471539675821084060,-355994.0,-312125.0,-8645949.0,-1494.0,84950.0,-11489.0
1471539675834585712,-357201.0,-288251.0,-8717145.0,-2415.0,84219.0,-12198.0
1471539675835582061,-356460.0,-263446.0,-8682723.0,-2107.0,85688.0,-10672.0
1471539675837583360,-356283.0,-264268.0,-8718461.0,-2102.0,84234.0,-10618.0
1471539675838924085,-334418.0,-298653.0,-8647897.0,-66.0,86897.0,-10722.0
1471539675857589359,-336262.0,-275083.0,-8682390.0,-2236.0,85439.0,-11445.0
1471539675861684125,-375557.0,-300185.0,-8682985.0,-115.0,85927.0,-10703.0
1471539675862298297,-357470.0,-311668.0,-8681623.0,-2712.0,85666.0,-11456.0
1471539675863743851,-377846.0,-299209.0,-8646218.0,-2587.0,87369.0,-10738.0
1471539675871099742,-376575.0,-298601.0,-8719623.0,-88.0,88825.0,-10710.0
1471539675872310564,-335540.0,-299841.0,-8755046.0,-1275.0,84707.0,-10581.0
1471539675880135111,-334699.0,-300602.0,-8682670.0,-1306.0,83262.0,-10628.0
1471539675881598508,-356171.0,-311302.0,-8610212.0,-1499.0,86403.0,-11543.0
1471539675894584504,-354526.0,-262776.0,-8648015.0,356.0,87153.0,-10746.0
1471539675896097311,-356283.0,-264268.0,-8718461.0,-2102.0,84234.0,-10618.0
1471539675898050103,-374921.0,-299881.0,-8719687.0,1134.0,86655.0,-10689.0
1471539675899581919,-336084.0,-275905.0,-8718128.0,-2232.0,83985.0,-11391.0
1471539675917093239,-336439.0,-274260.0,-8646653.0,-2241.0,86892.0,-11499.0
1471539675918112139,-377033.0,-299728.0,-8718658.0,-1333.0,86644.0,-10670.0
1471539675920097212,-355449.0,-336061.0,-8682867.0,-537.0,85671.0,-10679.0
1471539675921596989,-355358.0,-311821.0,-8682652.0,-245.0,85678.0,-11475.0
1471539675930637443,-377846.0,-299209.0,-8646218.0,-2587.0,87369.0,-10738.0
1471539675932118972,-377210.0,-298905.0,-8682921.0,-1338.0,88097.0,-10724.0
1471539675940158910,-335804.0,-273956.0,-8683355.0,-991.0,87620.0,-11485.0
1471539675941110725,-334963.0,-274717.0,-8610979.0,-1023.0,86175.0,-11532.0
1471539675955625267,-335449.0,-275601.0,-8754830.0,-982.0,84713.0,-11377.0
1471539675957080929,-354440.0,-287839.0,-8683967.0,68.0,85692.0,-9895.0
1471539675958565681,-356743.0,-287125.0,-8718110.0,-1170.0,86401.0,-12239.0
1471539675960081022,-356834.0,-311365.0,-8718325.0,-1462.0,86395.0,-11443.0
1471539675977090345,-356283.0,-264268.0,-8718461.0,-2102.0,84234.0,-10618.0
1471539675978138570,-337652.0,-299688.0,-8754017.0,-3742.0,84696.0,-10562.0
1471539675980598871,-376942.0,-275488.0,-8718443.0,-1040.0,86650.0,-11466.0
1471539675982096383,-336439.0,-274260.0,-8646653.0,-2241.0,86892.0,-11499.0
1471539675991141267,-335804.0,-273956.0,-8683355.0,-991.0,87620.0,-11485.0
1471539675992095240,-376942.0,-275488.0,-8718443.0,-1040.0,86650.0,-11466.0
1471539676007602191,-377400.0,-276614.0,-8717478.0,-2285.0,84468.0,-11426.0
1471539676009085606,-375557.0,-300185.0,-8682985.0,-115.0,85927.0,-10703.0
1471539676014103099,-355358.0,-311821.0,-8682652.0,-245.0,85678.0,-11475.0
1471539676016100638,-355825.0,-263142.0,-8719426.0,-857.0,86416.0,-10659.0
1471539676017590321,-357379.0,-287428.0,-8681407.0,-2419.0,85673.0,-12252.0
1471539676019097976,-377400.0,-276614.0,-8717478.0,-2285.0,84468.0,-11426.0
1471539676037104723,-356002.0,-262319.0,-8683688.0,-862.0,87869.0,-10713.0
1471539676041840646,-355358.0,-311821.0,-8682652.0,-245.0,85678.0,-11475.0
1471539676042939524,-378023.0,-298386.0,-8610481.0,-2592.0,88823.0,-10792.0
1471539676044730574,-376192.0,-300488.0,-8646282.0,-1365.0,85198.0,-10717.0
1471539676050629546,-354526.0,-262776.0,-8648015.0,356.0,87153.0,-10746.0
1471539676051601993,-377577.0,-275792.0,-8681740.0,-2290.0,85922.0,-11480.0
1471539676059711233,-375557.0,-300185.0,-8682985.0,-115.0,85927.0,-10703.0
1471539676061133250,-356171.0,-311302.0,-8610212.0,-1499.0,86403.0,-11543.0
1471539676074629625,-356834.0,-311365.0,-8718325.0,-1462.0,86395.0,-11443.0
1471539676075652183,-376942.0,-275488.0,-8718443.0,-1040.0,86650.0,-11466.0
1471539676078126799,-377210.0,-298905.0,-8682921.0,-1338.0,88097.0,-10724.0
1471539676079126188,-376192.0,-300488.0,-8646282.0,-1365.0,85198.0,-10717.0
1471539676097639086,-375466.0,-275945.0,-8682769.0,177.0,85933.0,-11499.0
1471539676098603483,-377491.0,-300854.0,-8717693.0,-2578.0,84462.0,-10630.0
1471539676100689411,-335895.0,-298196.0,-8683571.0,-1284.0,87614.0,-10689.0
1471539676102130027,-336262.0,-275083.0,-8682390.0,-2236.0,85439.0,-11445.0
1471539676119643673,-356834.0,-311365.0,-8718325.0,-1462.0,86395.0,-11443.0
1471539676120663484,-355535.0,-310999.0,-8646914.0,-249.0,87131.0,-11530.0
1471539676124145049,-357379.0,-287428.0,-8681407.0,-2419.0,85673.0,-12252.0
1471539676125618631,-376101.0,-276249.0,-8646067.0,-1072.0,85205.0,-11513.0
1471539676134642732,-336897.0,-275386.0,-8645688.0,-3486.0,84711.0,-11459.0
1471539676136123576,-336353.0,-299322.0,-8682606.0,-2529.0,85432.0,-10649.0
1471539676138148286,-334785.0,-275539.0,-8646717.0,-1018.0,84722.0,-11478.0
1471539676139659394,-355902.0,-287885.0,-8645734.0,-1202.0,84956.0,-12285.0
1471539676157634544,-357556.0,-286606.0,-8645670.0,-2424.0,87127.0,-12307.0
1471539676158644348,-336262.0,-275083.0,-8682390.0,-2236.0,85439.0,-11445.0
1471539676161159164,-335626.0,-274779.0,-8719093.0,-987.0,86167.0,-11431.0
1471539676162633727,-357379.0,-287428.0,-8681407.0,-2419.0,85673.0,-12252.0
1471539676170649623,-375466.0,-275945.0,-8682769.0,177.0,85933.0,-11499.0
1471539676172144251,-377210.0,-298905.0,-8682921.0,-1338.0,88097.0,-10724.0
1471539676180167286,-357647.0,-310846.0,-8645885.0,-2717.0,87120.0,-11511.0
1471539676181208582,-375557.0,-300185.0,-8682985.0,-115.0,85927.0,-10703.0
1471539676202154692,-376015.0,-301311.0,-8682020.0,-1360.0,83745.0,-10663.0
1471539676203650309,-376764.0,-276311.0,-8754180.0,-1036.0,85196.0,-11412.0
1471539676206145037,-354349.0,-263599.0,-8683752.0,361.0,85699.0,-10691.0
1471539676207625401,-336262.0,-275083.0,-8682390.0,-2236.0,85439.0,-11445.0
1471539676217136027,-377577.0,-275792.0,-8681740.0,-2290.0,85922.0,-11480.0
1471539676218627980,-377577.0,-275792.0,-8681740.0,-2290.0,85922.0,-11480.0
1471539676220644798,-356374.0,-288508.0,-8718676.0,-2395.0,84228.0,-9822.0
1471539676221709582,-356743.0,-287125.0,-8718110.0,-1170.0,86401.0,-12239.0
1471539676230640924,-357379.0,-287428.0,-8681407.0,-2419.0,85673.0,-12252.0
1471539676231689249,-335626.0,-274779.0,-8719093.0,-987.0,86167.0,-11431.0
1471539676240133109,-354807.0,-264725.0,-8682787.0,-884.0,83517.0,-10651.0
1471539676241693700,-354807.0,-264725.0,-8682787.0,-884.0,83517.0,-10651.0
1471539676254159355,-375466.0,-275945.0,-8682769.0,177.0,85933.0,-11499.0
1471539676256140915,-335626.0,-274779.0,-8719093.0,-987.0,86167.0,-11431.0
1471539676260632982,-356460.0,-263446.0,-8682723.0,-2107.0,85688.0,-10672.0
1471539676266282306,-355902.0,-287885.0,-8645734.0,-1202.0,84956.0,-12285.0
1471539676277216470,-357201.0,-288251.0,-8717145.0,-2415.0,84219.0,-12198.0
1471539676278129319,-355725.0,-288708.0,-8681471.0,-1197.0,83502.0,-12231.0
1471539676280137265,-356192.0,-240029.0,-8718245.0,-1810.0,84241.0,-11414.0
1471539676281621876,-357379.0,-287428.0,-8681407.0,-2419.0,85673.0,-12252.0
1471539676290653933,-377577.0,-275792.0,-8681740.0,-2290.0,85922.0,-11480.0
1471539676292144768,-357379.0,-287428.0,-8681407.0,-2419.0,85673.0,-12252.0
1471539676299671136,-336084.0,-275905.0,-8718128.0,-2232.0,83985.0,-11391.0
1471539676300803895,-377577.0,-275792.0,-8681740.0,-2290.0,85922.0,-11480.0
1471539676314631713,-377400.0,-276614.0,-8717478.0,-2285.0,84468.0,-11426.0
1471539676315648034,-336084.0,-275905.0,-8718128.0,-2232.0,83985.0,-11391.0
1471539676318420400,-355825.0,-263142.0,-8719426.0,-857.0,86416.0,-10659.0
1471539676319664498,-357837.0,-288555.0,-8680442.0,-3664.0,83491.0,-12212.0
1471539676336952519,-335244.0,-276666.0,-8645752.0,-2263.0,82540.0,-11437.0
1471539676341446399,-356369.0,-239206.0,-8682508.0,-1814.0,85694.0,-11468.0
1471539676341947255,-375557.0,-300185.0,-8682985.0,-115.0,85927.0,-10703.0
1471539676343041187,-377400.0,-276614.0,-8717478.0,-2285.0,84468.0,-11426.0
1471539676350954626,-336084.0,-275905.0,-8718128.0,-2232.0,83985.0,-11391.0
1471539676352546252,-377486.0,-251552.0,-8681525.0,-1997.0,85928.0,-12276.0
1471539676359560368,-357201.0,-288251.0,-8717145.0,-2415.0,84219.0,-12198.0
1471539676361003964,-334608.0,-276362.0,-8682454.0,-1014.0,83268.0,-11424.0
1471539676374119271,-336084.0,-275905.0,-8718128.0,-2232.0,83985.0,-11391.0
1471539676375636632,-336084.0,-275905.0,-8718128.0,-2232.0,83985.0,-11391.0
1471539676382682944,-357201.0,-288251.0,-8717145.0,-2415.0,84219.0,-12198.0
1471539676384136719,-357024.0,-289074.0,-8752882.0,-2410.0,82766.0,-12144.0
1471539676397147338,-356283.0,-264268.0,-8718461.0,-2102.0,84234.0,-10618.0
1471539676401368098,-335907.0,-276728.0,-8753865.0,-2227.0,82532.0,-11337.0
1471539676402920069,-336262.0,-275083.0,-8682390.0,-2236.0,85439.0,-11445.0
1471539676405169579,-355548.0,-289531.0,-8717209.0,-1192.0,82049.0,-12177.0
1471539676410812369,-377309.0,-252375.0,-8717262.0,-1993.0,84475.0,-12222.0
1471539676412446769,-335626.0,-274779.0,-8719093.0,-987.0,86167.0,-11431.0
1471539676420211131,-377223.0,-277437.0,-8753215.0,-2281.0,83015.0,-11372.0
1471539676421709361,-336897.0,-275386.0,-8645688.0,-3486.0,84711.0,-11459.0
1471539676434714839,-376942.0,-275488.0,-8718443.0,-1040.0,86650.0,-11466.0
1471539676435741415,-336084.0,-275905.0,-8718128.0,-2232.0,83985.0,-11391.0
1471539676438240132,-378036.0,-276918.0,-8680775.0,-3535.0,83740.0,-11440.0
1471539676439224218,-355994.0,-312125.0,-8645949.0,-1494.0,84950.0,-11489.0
1471539676457231801,-377223.0,-277437.0,-8753215.0,-2281.0,83015.0,-11372.0
1471539676458749356,-336451.0,-252792.0,-8716947.0,-3184.0,81810.0,-12146.0
1471539676463218873,-356283.0,-264268.0,-8718461.0,-2102.0,84234.0,-10618.0
1471539676464217748,-336084.0,-275905.0,-8718128.0,-2232.0,83985.0,-11391.0
1471539676470789969,-377131.0,-253197.0,-8753000.0,-1988.0,83021.0,-12168.0
1471539676472219113,-334517.0,-252122.0,-8682239.0,-721.0,83275.0,-12220.0
1471539676480225694,-335907.0,-276728.0,-8753865.0,-2227.0,82532.0,-11337.0
1471539676481946423,-599788.0,-126936.0,-10717722.0,-33272.0,76956.0,-10921.0
1471539676494756813,-337928.0,-252335.0,-8752621.0,-4402.0,82527.0,-12114.0
1471539676496211704,-295051.0,-298875.0,-8754165.0,-1241.0,84215.0,-12922.0
1471539676498222499,-335907.0,-276728.0,-8753865.0,-2227.0,82532.0,-11337.0
1471539676499744128,-442332.0,-195129.0,-8821669.0,-6252.0,80836.0,-12876.0
1471539676516932947,-430564.0,-88426.0,-9214055.0,-15875.0,75477.0,-12349.0
1471539676518452767,-356192.0,-240029.0,-8718245.0,-1810.0,84241.0,-11414.0
1471539676520751457,-317362.0,-287085.0,-8753468.0,-3579.0,84453.0,-12130.0
1471539676521976095,-357379.0,-287428.0,-8681407.0,-2419.0,85673.0,-12252.0
1471539676530424008,-337561.0,-275448.0,-8753801.0,-3449.0,84702.0,-11358.0
1471539676531951978,-358042.0,-287491.0,-8789521.0,-2383.0,85664.0,-12152.0
1471539676540449599,-380084.0,-252283.0,-8824347.0,-4424.0,84455.0,-12102.0
1471539676541956804,-383665.0,-180641.0,-8822209.0,-9705.0,82279.0,-12036.0
1471539676554625602,-372121.0,-69763.0,-8927795.0,-19388.0,84196.0,-11881.0
1471539676557456819,-374723.0,28614.0,-9072187.0,-20601.0,87109.0,-12576.0
1471539676557887199,-290656.0,192608.0,-9212632.0,-40636.0,93105.0,-11520.0
1471539676558940600,-133760.0,248373.0,-9249254.0,-47188.0,98403.0,-12985.0
1471539676575981177,-291857.0,145712.0,-9249701.0,-41193.0,95991.0,-9936.0
1471539676577438526,-310238.0,154984.0,-9356744.0,-38603.0,91882.0,-11396.0
1471539676584967856,-339805.0,264089.0,-9352601.0,-49620.0,92109.0,-11336.0
1471539676585959526,-288304.0,520969.0,-9350436.0,-62424.0,93585.0,-11233.0
1471539676599476914,-327637.0,396739.0,-9565184.0,-58995.0,89672.0,-11815.0
1471539676603463352,-360524.0,650709.0,-9632165.0,-74365.0,89196.0,-11654.0
1471539676604013784,-368534.0,723722.0,-9737047.0,-83300.0,89170.0,-11489.0
1471539676604453313,-311733.0,811324.0,-9880728.0,-87057.0,91340.0,-12903.0
1471539676614513879,-195980.0,816255.0,-9988605.0,-94239.0,94201.0,-12702.0
1471539676616014286,-339410.0,893506.0,-10093155.0,-95849.0,87202.0,-11804.0
1471539676618036499,-227903.0,948287.0,-10307622.0,-106099.0,92227.0,-13096.0
1471539676619500050,-316059.0,1067647.0,-10376631.0,-113319.0,92472.0,-12250.0
1471539676637024097,-107050.0,1288337.0,-10559094.0,-127600.0,108658.0,-12850.0
1471539676638512332,-113480.0,1363665.0,-10557793.0,-134082.0,113004.0,-12867.0
1471539676640540928,-119967.0,1432868.0,-10878065.0,-141745.0,106439.0,-12417.0
1471539676642032028,-3724.0,1487986.0,-10805924.0,-148387.0,112228.0,-14017.0
1471539676659539201,-108430.0,1614517.0,-11017777.0,-151789.0,104740.0,-14556.0
1471539676661016585,-35745.0,1666548.0,-11159283.0,-160903.0,106632.0,-15908.0
1471539676663043288,-8963.0,1769628.0,-11264344.0,-174381.0,114812.0,-16590.0
1471539676664009255,205402.0,1820557.0,-11303021.0,-182188.0,130252.0,-18936.0
1471539676673526198,-239810.0,1015950.0,-12028433.0,-125703.0,102638.0,-17012.0
1471539676675001497,190191.0,1754474.0,-11665298.0,-176687.0,122502.0,-15374.0
1471539676680547700,176027.0,2166639.0,-11729409.0,-192606.0,121811.0,-21539.0
1471539676682035029,126800.0,2334214.0,-11796644.0,-202899.0,119393.0,-22191.0
1471539676697017672,224366.0,2233627.0,-11943495.0,-204003.0,129738.0,-22115.0
1471539676698511047,285739.0,2106442.0,-12200147.0,-199259.0,138403.0,-21195.0
1471539676701023247,386698.0,2268446.0,-12345826.0,-198372.0,142302.0,-25021.0
1471539676702520383,340571.0,2413562.0,-12525879.0,-203944.0,144252.0,-22500.0
1471539676722718188,297628.0,2340251.0,-12886918.0,-203516.0,145418.0,-19830.0
1471539676723453800,409955.0,2161455.0,-13183603.0,-189453.0,147826.0,-17243.0
1471539676724499459,420371.0,2037825.0,-13477025.0,-176049.0,144928.0,-15443.0
1471539676725516246,312729.0,2044693.0,-13688360.0,-182156.0,139570.0,-14399.0
1471539676734035662,215552.0,2004826.0,-13905671.0,-174041.0,138610.0,-14314.0
1471539676735016370,180630.0,1978837.0,-14088876.0,-165695.0,138386.0,-13441.0
1471539676741039935,302545.0,1885023.0,-14162533.0,-166692.0,138348.0,-12482.0
1471539676742144852,319333.0,1873173.0,-14232582.0,-170502.0,137351.0,-13149.0
1471539676757169835,173872.0,2002893.0,-14374241.0,-171477.0,137616.0,-13911.0
1471539676762630149,166584.0,2051147.0,-14551778.0,-179451.0,136859.0,-12882.0
1471539676763619340,242390.0,2151248.0,-14695413.0,-185491.0,138783.0,-13470.0
1471539676764625343,283402.0,2199552.0,-14839483.0,-184812.0,136851.0,-14872.0
1471539676779466190,206893.0,2121099.0,-15019072.0,-178391.0,130555.0,-14716.0
1471539676781362434,121459.0,2120014.0,-15269672.0,-179643.0,132221.0,-14551.0
1471539676783984682,179794.0,2182338.0,-15558448.0,-181184.0,132933.0,-15034.0
1471539676785462950,234832.0,2197415.0,-15809357.0,-185802.0,135067.0,-16335.0
1471539676793463938,271768.0,2224480.0,-16135535.0,-187771.0,138914.0,-14460.0
1471539676794454588,271068.0,2274466.0,-16426203.0,-185816.0,142545.0,-13468.0
1471539676802997319,294905.0,2287204.0,-16609733.0,-180630.0,143770.0,-12551.0
1471539676804457261,311016.0,2275796.0,-16861803.0,-184352.0,144218.0,-10694.0
1471539676817484356,270939.0,2226633.0,-17115542.0,-181200.0,145410.0,-8941.0
1471539676818967901,276749.0,2105196.0,-17480246.0,-171455.0,146117.0,-7096.0
1471539676821466113,274234.0,2178510.0,-17660592.0,-172956.0,147570.0,-6942.0
1471539676822479536,272980.0,2153062.0,-17983680.0,-171937.0,145359.0,-8198.0
1471539676839979681,253659.0,2067823.0,-18200097.0,-168010.0,145570.0,-8830.0
1471539676842977336,252445.0,2020665.0,-18308075.0,-167333.0,147722.0,-9553.0
1471539676843341746,316501.0,2010952.0,-18455202.0,-162411.0,149903.0,-10236.0
1471539676844462763,315190.0,2032055.0,-18596908.0,-164567.0,144084.0,-10796.0
1471539676853439536,194878.0,2025965.0,-18811376.0,-160988.0,139004.0,-10635.0
1471539676854465168,59418.0,1909344.0,-19025812.0,-150177.0,131979.0,-12886.0
1471539676862544458,37349.0,1944793.0,-19205454.0,-150932.0,131490.0,-12721.0
1471539676863968688,35111.0,1991719.0,-19383583.0,-152768.0,128576.0,-14085.0
1471539676876603230,11206.0,2000932.0,-19559979.0,-156325.0,123708.0,-15420.0
1471539676878957542,-34473.0,2047805.0,-19810335.0,-160631.0,122719.0,-14377.0
1471539676879300363,-52606.0,2009966.0,-20063590.0,-156094.0,121498.0,-14171.0
1471539676880427432,-10330.0,1987845.0,-20317848.0,-151318.0,123904.0,-15560.0
1471539676898996177,-14037.0,1964457.0,-20497523.0,-154009.0,125323.0,-14597.0
1471539676901086146,-17471.0,2013789.0,-20676553.0,-155823.0,126761.0,-16023.0
1471539676901515047,-16010.0,1992105.0,-20715401.0,-152377.0,131846.0,-15293.0
1471539676902461899,-805.0,2077049.0,-20893204.0,-157427.0,130864.0,-16648.0
1471539676922609552,-43532.0,2123008.0,-21072213.0,-159297.0,128441.0,-15671.0
1471539676923067169,-81652.0,2166774.0,-21179940.0,-157509.0,122414.0,-14738.0
1471539676928996276,-128602.0,2213040.0,-21356892.0,-164314.0,119969.0,-13723.0
1471539676931097249,-93474.0,2334465.0,-21535964.0,-171336.0,118756.0,-12671.0
1471539676937284427,-75246.0,2372206.0,-21752895.0,-172010.0,120682.0,-12479.0
1471539676938328883,-17787.0,2410568.0,-21824630.0,-176384.0,121394.0,-12348.0
1471539676939267061,-64017.0,2410345.0,-22074851.0,-180050.0,122566.0,-12130.0
1471539676940299107,-76701.0,2397124.0,-22148893.0,-169129.0,122111.0,-15321.0
1471539676960757429,-98778.0,2361541.0,-22365318.0,-168287.0,124503.0,-15171.0
1471539676961207714,-58899.0,2288322.0,-22689487.0,-167799.0,121796.0,-14800.0
1471539676961785844,7709.0,2230018.0,-22945685.0,-158510.0,123969.0,-16204.0
1471539676963356117,64397.0,2222087.0,-23197272.0,-159728.0,128281.0,-19145.0
1471539676982372729,115310.0,2333508.0,-23412124.0,-171768.0,129704.0,-16459.0
1471539676983847795,168628.0,2446222.0,-23519325.0,-180151.0,133319.0,-16309.0
1471539676984854468,191474.0,2460301.0,-23594677.0,-176224.0,136723.0,-15514.0
1471539676986122903,227350.0,2534997.0,-23702204.0,-181393.0,138407.0,-15374.0
1471539676998359287,235781.0,2669603.0,-23771876.0,-196927.0,139597.0,-11239.0
1471539676999369679,251719.0,2850888.0,-23952382.0,-203215.0,138655.0,-8631.0
1471539677000857652,315059.0,3078289.0,-23949779.0,-222554.0,150727.0,-8611.0
1471539677002483956,422737.0,3252590.0,-24018894.0,-241214.0,152874.0,-6773.0
1471539677019001751,507450.0,3374934.0,-24166996.0,-238318.0,152677.0,-5816.0
1471539677020562478,517238.0,3484320.0,-24343027.0,-250458.0,151676.0,-5534.0
1471539677021964010,623523.0,3611520.0,-24481386.0,-267265.0,155241.0,-9204.0
1471539677023457739,685932.0,3674119.0,-24591666.0,-265162.0,156710.0,-9893.0
1471539677042702276,802791.0,3801579.0,-24667259.0,-272048.0,163252.0,-6620.0
1471539677043736512,875953.0,3904301.0,-24702652.0,-280570.0,169526.0,-7351.0
1471539677045223006,900008.0,3915472.0,-24703197.0,-276718.0,167124.0,-8917.0
1471539677046220383,923520.0,3951344.0,-24669822.0,-275004.0,166188.0,-6562.0
1471539677064544913,920764.0,4000999.0,-24669829.0,-278089.0,168369.0,-5781.0
1471539677066462555,925461.0,4023045.0,-24598331.0,-274138.0,164771.0,-6621.0
1471539677066862951,938786.0,4085872.0,-24524823.0,-283229.0,167420.0,-5062.0
1471539677068066847,934300.0,4133793.0,-24450460.0,-290058.0,165963.0,-4268.0
1471539677079127095,919951.0,4144086.0,-24597731.0,-282485.0,164783.0,-3397.0
1471539677083309657,990558.0,4089651.0,-24569186.0,-268322.0,174255.0,-5210.0
1471539677084811328,1042596.0,4108995.0,-24640379.0,-275430.0,183645.0,-6763.0
1471539677087285825,1160571.0,4187576.0,-24641993.0,-280506.0,188724.0,-6715.0
1471539677102115860,1166411.0,4236038.0,-24826670.0,-272431.0,190216.0,-5841.0
1471539677103642757,1152424.0,4173149.0,-25008291.0,-263304.0,187557.0,-7299.0
1471539677104617927,1176957.0,4093208.0,-24905380.0,-256901.0,196036.0,-5965.0
1471539677106084974,1213948.0,4119024.0,-24938928.0,-260259.0,196256.0,-9050.0
1471539677116675353,1149305.0,4152652.0,-24970608.0,-263619.0,193340.0,-11371.0
1471539677118088672,1080838.0,4050247.0,-24864331.0,-248968.0,187817.0,-13141.0
1471539677119606608,943948.0,3976798.0,-24894489.0,-245068.0,170639.0,-14574.0
1471539677120614022,918787.0,3985666.0,-24926571.0,-252358.0,165048.0,-13629.0
1471539677139135563,887939.0,4136117.0,-24878070.0,-287556.0,170742.0,-13484.0
1471539677141113234,949412.0,4470995.0,-24968052.0,-352426.0,195201.0,-13960.0
1471539677142586619,1054945.0,4831071.0,-24626015.0,-417096.0,219218.0,-15600.0
1471539677143608989,1158068.0,5060122.0,-24949367.0,-435027.0,232964.0,-15283.0
1471539677162148336,1198642.0,5015061.0,-24988051.0,-434286.0,237548.0,-13704.0
1471539677163596800,1235569.0,4995431.0,-24880611.0,-438229.0,243579.0,-13038.0
1471539677164606121,1230247.0,5093415.0,-24842456.0,-444445.0,245033.0,-13843.0
1471539677166100713,1316944.0,5261134.0,-25130110.0,-457012.0,258297.0,-15188.0
1471539677176969014,1371547.0,5278217.0,-24768450.0,-466736.0,263367.0,-14688.0
1471539677177995526,1415412.0,5318983.0,-25340835.0,-482024.0,267615.0,-14053.0
1471539677179470431,1381995.0,5270200.0,-24368624.0,-480524.0,268174.0,-13422.0
1471539677180512422,1281549.0,5399052.0,-23897025.0,-482904.0,264372.0,-14660.0
1471539677206969369,1352999.0,5333397.0,-24257198.0,-489692.0,272751.0,-14328.0
1471539677208456812,1437292.0,5431660.0,-24148589.0,-506945.0,291088.0,-13698.0
1471539677209450016,1617776.0,5550282.0,-22780200.0,-521788.0,298430.0,-12470.0
1471539677211261709,1642858.0,5916783.0,-23061586.0,-556637.0,320846.0,-13024.0
1471539677213786442,1848687.0,6021976.0,-21188099.0,-570565.0,324358.0,-12997.0
1471539677218449948,1894727.0,6532953.0,-18990237.0,-584681.0,325612.0,-12589.0
1471539677221781270,2137226.0,6761501.0,-16429823.0,-609613.0,330138.0,-12319.0
1471539677224562966,2032941.0,7228643.0,-13918285.0,-585094.0,329396.0,-14983.0
1471539677236771840,2011084.0,7036177.0,-11186242.0,-546464.0,292988.0,-16576.0
1471539677238345935,-2032083.0,-9342772.0,-27907310.0,2017314.0,-670078.0,-66312.0
1471539677255501323,-6049968.0,-8173549.0,-28373801.0,1797566.0,-1011104.0,-58035.0
1471539677256931126,-6972095.0,-2767937.0,-26156213.0,1076763.0,-725704.0,-43131.0
1471539677259448035,-1748556.0,1331358.0,-21413418.0,342825.0,-363733.0,-32835.0
1471539677261023772,793161.0,2380911.0,-14655952.0,-123942.0,-27929.0,-19247.0
1471539677269878973,1107348.0,2933151.0,-10852929.0,-278533.0,101462.0,-12055.0
1471539677270934897,495424.0,5581124.0,-8893197.0,-371803.0,180139.0,-14814.0
1471539677282785605,-675879.0,4957323.0,-16462116.0,165956.0,110021.0,-4979.0
1471539677284253016,549531.0,557061.0,-19944834.0,635435.0,142745.0,-35127.0
1471539677293461898,1578200.0,-2028726.0,-18158482.0,679351.0,-26268.0,-39449.0
1471539677294903434,2171286.0,-788253.0,-19510952.0,433088.0,-53231.0,-40909.0
1471539677297763670,1821657.0,3955888.0,-15074090.0,-50430.0,141628.0,-20505.0
1471539677298746600,-252220.0,6008730.0,-11930188.0,-297172.0,146273.0,-17417.0
1471539677315918753,-174072.0,3735824.0,-11069112.0,-266310.0,166783.0,-16182.0
1471539677317439489,2610687.0,106748.0,-16962824.0,270423.0,645790.0,-10361.0
1471539677319944728,3867679.0,-312882.0,-13532499.0,224780.0,478141.0,-24187.0
1471539677321486609,1283394.0,695623.0,-13478095.0,284259.0,130852.0,-28811.0
1471539677331971482,-1550726.0,1492968.0,-11835409.0,99559.0,51378.0,-20919.0
1471539677332375721,-2281052.0,1576930.0,-12157461.0,50690.0,10070.0,-16951.0
1471539677338422295,-1281740.0,1247376.0,-14844154.0,136386.0,-131767.0,-13258.0
1471539677339933762,788559.0,578412.0,-15326708.0,182294.0,-133986.0,-10923.0
1471539677353426264,651760.0,823455.0,-14196007.0,123071.0,-88147.0,-9857.0
1471539677354473222,-770244.0,1939953.0,-12632253.0,33676.0,-76461.0,-10976.0
1471539677361563573,-906076.0,2712046.0,-11210450.0,-31478.0,-40618.0,-13196.0
1471539677362810492,-414961.0,2205295.0,-10135571.0,-49994.0,1040.0,-14261.0
1471539677375966095,-627160.0,1266917.0,-9920365.0,-13756.0,-20109.0,-12968.0
1471539677376933616,-1343427.0,297616.0,-11880546.0,185155.0,-70920.0,-12539.0
1471539677379361899,-1550061.0,-523608.0,-14297960.0,398837.0,-71135.0,-14560.0
1471539677380962111,-762702.0,-1678711.0,-16119335.0,537749.0,-95685.0,-14663.0
1471539677397943688,-410262.0,-2287590.0,-16903603.0,535860.0,-140681.0,-13784.0
1471539677399482471,190653.0,-1953522.0,-16653656.0,544129.0,-42596.0,-11923.0
1471539677402776657,149546.0,-300001.0,-15189437.0,425800.0,23517.0,-12570.0
1471539677405260146,328604.0,2265688.0,-12105840.0,113690.0,81914.0,-13669.0
1471539677412941350,909989.0,3394064.0,-9659247.0,-125519.0,135285.0,-15930.0
1471539677413948834,1029225.0,3208740.0,-8790698.0,-151454.0,161770.0,-16008.0
1471539677419416177,1479497.0,2333468.0,-10356368.0,44471.0,359054.0,-13886.0
1471539677420590695,2207422.0,2294326.0,-10589526.0,41102.0,387291.0,-13539.0
1471539677436443938,2069337.0,2736170.0,-10716313.0,-32371.0,285293.0,-17017.0
1471539677437502068,2945756.0,2651837.0,-12160823.0,69052.0,373135.0,-14797.0
1471539677440791294,2436701.0,2543710.0,-12511816.0,89552.0,334486.0,-14437.0
1471539677441766572,2184755.0,2624831.0,-12607049.0,78008.0,315593.0,-14950.0
1471539677449365869,2514823.0,2145970.0,-12575212.0,143911.0,363132.0,-13583.0
1471539677451051128,2457834.0,2276381.0,-12001111.0,161326.0,341786.0,-14020.0
1471539677462519269,2658724.0,2520253.0,-10949806.0,125945.0,352911.0,-13949.0
1471539677463538905,2174315.0,2811576.0,-10467274.0,106673.0,351267.0,-13772.0
1471539677481210880,1887164.0,3371362.0,-10253944.0,44198.0,317819.0,-13200.0
1471539677482281598,1961864.0,3505379.0,-10420899.0,10230.0,311405.0,-13411.0
1471539677484836729,2865578.0,3418748.0,-11155729.0,-29236.0,392593.0,-16071.0
1471539677486185142,3377775.0,3520403.0,-11746335.0,-24768.0,402514.0,-14564.0
1471539677496198745,3709056.0,3658849.0,-12010046.0,-32532.0,440456.0,-14569.0
1471539677497800941,3669234.0,3685517.0,-11867260.0,-29845.0,446771.0,-15636.0
1471539677501516753,3125355.0,3495887.0,-11379885.0,-30428.0,411206.0,-16734.0
1471539677501992925,2708833.0,3429434.0,-10825034.0,-28135.0,374978.0,-17041.0
1471539677525809059,2488069.0,3421516.0,-10164042.0,-36052.0,347195.0,-16560.0
1471539677526886703,2327209.0,3337417.0,-9799842.0,-21302.0,313907.0,-15871.0
1471539677529214117,2262316.0,3228297.0,-9764769.0,-6668.0,296780.0,-15034.0
1471539677530201584,2098558.0,2882353.0,-10159526.0,14954.0,272077.0,-14587.0
1471539677533219417,2165534.0,2511203.0,-10491794.0,45105.0,258530.0,-14270.0
1471539677535187567,2047631.0,2245009.0,-10640946.0,73824.0,245750.0,-14258.0
1471539677539191458,1829864.0,1981009.0,-10675819.0,101198.0,218948.0,-15794.0
1471539677540716604,1685875.0,1695221.0,-10380257.0,97426.0,210403.0,-15203.0
1471539677563122090,1353241.0,1509215.0,-9932428.0,84781.0,192434.0,-14682.0
1471539677564653293,1071006.0,1485897.0,-9482162.0,60612.0,180261.0,-15706.0
1471539677566519031,899613.0,1506427.0,-7921454.0,39188.0,177158.0,-15477.0
1471539677568153257,908362.0,1741346.0,-7739202.0,24769.0,184197.0,-14844.0
1471539677578109099,1149147.0,1799640.0,-7924436.0,20875.0,191438.0,-13788.0
1471539677579572340,1347244.0,1733008.0,-8105168.0,14157.0,192580.0,-13437.0
1471539677582173538,1309020.0,1631434.0,-8283063.0,17851.0,185775.0,-14807.0
1471539677583769333,1087911.0,1604058.0,-8455843.0,19823.0,168111.0,-15353.0
1471539677593105782,882198.0,1586295.0,-8299284.0,10732.0,143660.0,-15215.0
1471539677594407940,677385.0,1542950.0,-8251118.0,2607.0,117024.0,-14159.0
1471539677599377665,430914.0,1336506.0,-8060190.0,-1495.0,103171.0,-15051.0
1471539677600474146,149345.0,1126625.0,-8016116.0,566.0,86199.0,-13464.0
1471539677623408274,-47736.0,873602.0,-7906191.0,25592.0,56261.0,-14267.0
1471539677625073368,-415777.0,640237.0,-7826666.0,42073.0,24601.0,-13478.0
1471539677627013005,-433793.0,619789.0,-7966831.0,41864.0,10316.0,-13946.0
1471539677627966852,-374869.0,537359.0,-8075844.0,39724.0,11727.0,-12216.0
1471539677638442503,-300455.0,591125.0,-8291719.0,34355.0,17257.0,-13581.0
1471539677639538328,-289246.0,610644.0,-8218411.0,27152.0,28593.0,-15325.0
1471539677642100976,-254347.0,544375.0,-8146509.0,22631.0,37500.0,-15450.0
1471539677643828679,-301173.0,522138.0,-8144918.0,17373.0,42307.0,-14713.0
1471539677657744967,-330082.0,418470.0,-8072100.0,9875.0,51923.0,-12489.0
1471539677658775218,-361235.0,311660.0,-8210582.0,1144.0,54971.0,-14714.0
1471539677661739379,-428101.0,250673.0,-8352137.0,-3327.0,56372.0,-13812.0
1471539677662911411,-427206.0,33222.0,-8496356.0,201.0,57031.0,-13699.0
1471539677675917642,-363405.0,-148822.0,-8568652.0,2981.0,53353.0,-13547.0
1471539677676978243,-429433.0,-232299.0,-8638446.0,657.0,57658.0,-14352.0
1471539677679403860,-719296.0,-367264.0,-8304875.0,9710.0,24321.0,-14460.0
1471539677680939588,-743369.0,-421391.0,-8379466.0,10264.0,36874.0,-13792.0
1471539677697967839,-779684.0,-447649.0,-8163897.0,13534.0,35208.0,-13231.0
1471539677699417231,-657219.0,-509489.0,-8206362.0,17827.0,49709.0,-13344.0
1471539677703130436,-619033.0,-507043.0,-8242621.0,15440.0,52113.0,-13298.0
1471539677704594165,-514777.0,-609736.0,-8464035.0,21748.0,59585.0,-13171.0
1471539677728071872,-471094.0,-727827.0,-8574801.0,27760.0,63430.0,-13926.0
1471539677729613277,-506908.0,-941574.0,-8615145.0,38645.0,73319.0,-14129.0
1471539677732183387,-583095.0,-1018058.0,-8544238.0,43785.0,70672.0,-11875.0
1471539677733162595,-664998.0,-973968.0,-8575812.0,44225.0,65837.0,-15797.0
1471539677735552284,-699053.0,-1021924.0,-8545438.0,52249.0,69985.0,-12015.0
1471539677736587635,-478652.0,-413257.0,-8641927.0,-420.0,82015.0,-13119.0
1471539677739051396,-376737.0,-276552.0,-8609364.0,-2322.0,84477.0,-11527.0
1471539677741842233,-336806.0,-251146.0,-8645472.0,-3193.0,84717.0,-12255.0
1471539677757961124,-315894.0,-237736.0,-8755534.0,-1729.0,86656.0,-11387.0
1471539677759604315,-316635.0,-262542.0,-8789956.0,-2037.0,85188.0,-12913.0
1471539677762697277,-235482.0,-139828.0,-8827885.0,-4112.0,84976.0,-12019.0
1471539677763980527,-235482.0,-139828.0,-8827885.0,-4112.0,84976.0,-12019.0
1471539677772058869,-316439.0,-213800.0,-8718616.0,-2686.0,85934.0,-12197.0
1471539677773337949,-358014.0,-287732.0,-8644705.0,-3669.0,84945.0,-12266.0
1471539677786856726,-378122.0,-251856.0,-8644822.0,-3247.0,85200.0,-12290.0
1471539677788377976,-357110.0,-264011.0,-8716930.0,-2122.0,84226.0,-12994.0
1471539677795961007,-417613.0,-325699.0,-8716756.0,-477.0,84941.0,-12264.0
1471539677796977955,-377596.0,-325356.0,-8788817.0,-1636.0,83722.0,-12142.0
1471539677800014378,-275319.0,-261832.0,-8790606.0,-1983.0,84705.0,-12878.0
1471539677801982286,-296903.0,-225499.0,-8826396.0,-2779.0,85677.0,-12868.0
1471539677817839024,-336834.0,-250905.0,-8790288.0,-1907.0,85437.0,-12140.0
1471539677819463987,-337005.0,-179050.0,-8717768.0,-3509.0,84008.0,-12180.0
1471539677822710606,-296502.0,-177822.0,-8645978.0,-4709.0,84251.0,-12213.0
1471539677823752774,-315598.0,-214561.0,-8646240.0,-2718.0,84489.0,-12243.0
1471539677840932165,-377577.0,-275792.0,-8681740.0,-2290.0,85922.0,-11480.0
1471539677842402007,-376566.0,-348407.0,-8681884.0,-720.0,85905.0,-11487.0
1471539677852238489,-377951.0,-323710.0,-8717342.0,-1645.0,86629.0,-12250.0
1471539677853258305,-357117.0,-335044.0,-8753712.0,-525.0,87108.0,-13009.0
1471539677855933112,-377316.0,-323407.0,-8754045.0,-396.0,87357.0,-12236.0
1471539677856931346,-376653.0,-323345.0,-8645931.0,-432.0,87365.0,-12337.0
1471539677859458801,-377755.0,-274969.0,-8646003.0,-2295.0,87375.0,-11534.0
1471539677860973846,-335974.0,-202101.0,-8610835.0,-2593.0,86192.0,-11525.0
1471539677878380251,-316719.0,-215749.0,-8753388.0,-3926.0,82299.0,-12102.0
1471539677879395002,-316530.0,-238040.0,-8718831.0,-2978.0,85928.0,-11401.0
1471539677882276478,-318093.0,-212521.0,-8718552.0,-3908.0,88105.0,-12218.0
1471539677883834763,-316530.0,-238040.0,-8718831.0,-2978.0,85928.0,-11401.0
1471539677892395488,-337371.0,-297739.0,-8719244.0,-2502.0,88331.0,-10656.0
1471539677893786969,-376830.0,-322522.0,-8610194.0,-437.0,88819.0,-12391.0
1471539677901512681,-374999.0,-324624.0,-8645995.0,790.0,85195.0,-12316.0
1471539677904078807,-398872.0,-287315.0,-8645020.0,-2478.0,87610.0,-12341.0
1471539677915678481,-376192.0,-300488.0,-8646282.0,-1365.0,85198.0,-10717.0
1471539677918724095,-357379.0,-287428.0,-8681407.0,-2419.0,85673.0,-12252.0
1471539677927062367,-336171.0,-250843.0,-8682175.0,-1944.0,85445.0,-12241.0
1471539677928045947,-314418.0,-238193.0,-8719860.0,-511.0,85939.0,-11420.0
1471539677938190608,-316352.0,-238863.0,-8754569.0,-2974.0,84474.0,-11346.0
1471539677939262124,-336171.0,-250843.0,-8682175.0,-1944.0,85445.0,-12241.0
1471539677943192601,-355902.0,-287885.0,-8645734.0,-1202.0,84956.0,-12285.0
1471539677944309788,-375924.0,-277071.0,-8681804.0,-1067.0,83751.0,-11459.0
1471539677952335399,-396496.0,-313353.0,-8717739.0,-293.0,84707.0,-11456.0
1471539677953312073,-396851.0,-311708.0,-8646264.0,-303.0,87614.0,-11564.0
1471539677961854222,-377846.0,-299209.0,-8646218.0,-2587.0,87369.0,-10738.0
1471539677963283056,-356566.0,-287947.0,-8753847.0,-1165.0,84947.0,-12184.0
1471539677975862239,-358397.0,-285845.0,-8718046.0,-2392.0,88572.0,-12260.0
1471539677976854143,-337280.0,-273499.0,-8719029.0,-2209.0,88337.0,-11452.0
1471539677984430894,-334794.0,-225734.0,-8684456.0,-386.0,87642.0,-10701.0
1471539677986299062,-315231.0,-237674.0,-8647420.0,-1765.0,86665.0,-11488.0
1471539677998318169,-356089.0,-237257.0,-8647735.0,-574.0,89329.0,-11563.0
1471539678001846417,-377119.0,-274665.0,-8682705.0,-1045.0,88104.0,-11520.0
1471539678004322961,-377932.0,-274146.0,-8610265.0,-2299.0,88829.0,-11588.0
1471539678005866780,-356834.0,-311365.0,-8718325.0,-1462.0,86395.0,-11443.0
1471539678006832409,-376752.0,-297779.0,-8683886.0,-93.0,90279.0,-10764.0
1471539678008336418,-398327.0,-311251.0,-8681938.0,-1521.0,88331.0,-11532.0
1471539678016616790,-375734.0,-299362.0,-8647247.0,-120.0,87380.0,-10757.0
1471539678017636586,-377577.0,-275792.0,-8681740.0,-2290.0,85922.0,-11480.0
1471539678026852922,-356369.0,-239206.0,-8682508.0,-1814.0,85694.0,-11468.0
1471539678028329950,-336171.0,-250843.0,-8682175.0,-1944.0,85445.0,-12241.0
1471539678038655016,-336984.0,-250324.0,-8609735.0,-3198.0,86171.0,-12309.0
1471539678040146592,-335895.0,-298196.0,-8683571.0,-1284.0,87614.0,-10689.0
1471539678051901026,-357012.0,-310542.0,-8682588.0,-1467.0,87848.0,-11497.0
1471539678052863144,-375734.0,-299362.0,-8647247.0,-120.0,87380.0,-10757.0
1471539678062690274,-377388.0,-298082.0,-8647183.0,-1342.0,89551.0,-10778.0
1471539678063866866,-377932.0,-274146.0,-8610265.0,-2299.0,88829.0,-11588.0
1471539678065604518,-398327.0,-311251.0,-8681938.0,-1521.0,88331.0,-11532.0
1471539678066769563,-396851.0,-311708.0,-8646264.0,-303.0,87614.0,-11564.0
1471539678076171787,-377565.0,-297260.0,-8611446.0,-1347.0,91004.0,-10832.0
1471539678077680316,-356271.0,-285737.0,-8648166.0,-1159.0,89317.0,-9971.0
1471539678086845490,-355825.0,-263142.0,-8719426.0,-857.0,86416.0,-10659.0
1471539678088293788,-377210.0,-298905.0,-8682921.0,-1338.0,88097.0,-10724.0
1471539678098817459,-356921.0,-286302.0,-8682372.0,-1174.0,87855.0,-12293.0
1471539678099737244,-357273.0,-262927.0,-8610283.0,-3361.0,86413.0,-10740.0
1471539678112365317,-396662.0,-333999.0,-8611707.0,645.0,91243.0,-10863.0
1471539678114458741,-396484.0,-334821.0,-8647445.0,649.0,89790.0,-10809.0
1471539678123188514,-377932.0,-274146.0,-8610265.0,-2299.0,88829.0,-11588.0
1471539678124633752,-377932.0,-274146.0,-8610265.0,-2299.0,88829.0,-11588.0
1471539678125667077,-356376.0,-310238.0,-8719290.0,-217.0,88576.0,-11483.0
1471539678126683841,-356921.0,-286302.0,-8682372.0,-1174.0,87855.0,-12293.0
1471539678135816642,-356547.0,-238383.0,-8646770.0,-1819.0,87148.0,-11523.0
1471539678136883171,-355162.0,-263080.0,-8611312.0,-894.0,86424.0,-10759.0
1471539678147495148,-334418.0,-298653.0,-8647897.0,-66.0,86897.0,-10722.0
1471539678148614292,-377033.0,-299728.0,-8718658.0,-1333.0,86644.0,-10670.0
1471539678158837878,-358574.0,-285023.0,-8682308.0,-2397.0,90025.0,-12314.0
1471539678159923666,-357189.0,-309719.0,-8646850.0,-1472.0,89302.0,-11551.0
1471539678170574239,-335437.0,-297070.0,-8684536.0,-39.0,89796.0,-10730.0
1471539678172346467,-377210.0,-298905.0,-8682921.0,-1338.0,88097.0,-10724.0
1471539678183365356,-375734.0,-299362.0,-8647247.0,-120.0,87380.0,-10757.0
1471539678183871559,-356743.0,-287125.0,-8718110.0,-1170.0,86401.0,-12239.0
1471539678193482888,-378023.0,-298386.0,-8610481.0,-2592.0,88823.0,-10792.0
1471539678194965997,-357189.0,-309719.0,-8646850.0,-1472.0,89302.0,-11551.0
1471539678197495550,-357734.0,-285783.0,-8609932.0,-2429.0,88580.0,-12361.0
1471539678199000526,-356638.0,-262623.0,-8646986.0,-2111.0,87141.0,-10727.0
1471539678207022108,-375276.0,-298236.0,-8648212.0,1125.0,89562.0,-10797.0
1471539678208473164,-377210.0,-298905.0,-8682921.0,-1338.0,88097.0,-10724.0
1471539678218855813,-375734.0,-299362.0,-8647247.0,-120.0,87380.0,-10757.0
1471539678220368394,-376370.0,-299666.0,-8610545.0,-1369.0,86652.0,-10771.0
1471539678230323908,-357825.0,-310023.0,-8610148.0,-2721.0,88574.0,-11565.0
1471539678233967108,-357556.0,-286606.0,-8645670.0,-2424.0,87127.0,-12307.0
1471539678242504287,-356080.0,-287063.0,-8609996.0,-1206.0,86410.0,-12339.0
1471539678244512216,-336072.0,-297373.0,-8647833.0,-1289.0,89068.0,-10743.0
1471539678244975546,-335981.0,-273134.0,-8647618.0,-996.0,89074.0,-11539.0
1471539678246993184,-337457.0,-272677.0,-8683291.0,-2214.0,89791.0,-11507.0
1471539678255487096,-334682.0,-272768.0,-8576207.0,217.0,89811.0,-11626.0
1471539678256982684,-357098.0,-285479.0,-8646635.0,-1179.0,89308.0,-12347.0
1471539678267155493,-377846.0,-299209.0,-8646218.0,-2587.0,87369.0,-10738.0
1471539678268151996,-377755.0,-274969.0,-8646003.0,-2295.0,87375.0,-11534.0
1471539678279007194,-357734.0,-285783.0,-8609932.0,-2429.0,88580.0,-12361.0
1471539678280072257,-375734.0,-299362.0,-8647247.0,-120.0,87380.0,-10757.0
1471539678291388884,-357012.0,-310542.0,-8682588.0,-1467.0,87848.0,-11497.0
1471539678292217438,-336897.0,-275386.0,-8645688.0,-3486.0,84711.0,-11459.0
1471539678302176109,-334596.0,-297830.0,-8612160.0,-71.0,88351.0,-10776.0
1471539678303626742,-357556.0,-286606.0,-8645670.0,-2424.0,87127.0,-12307.0
1471539678304605338,-357379.0,-287428.0,-8681407.0,-2419.0,85673.0,-12252.0
1471539678306620058,-377755.0,-274969.0,-8646003.0,-2295.0,87375.0,-11534.0
1471539678324623474,-377755.0,-274969.0,-8646003.0,-2295.0,87375.0,-11534.0
1471539678326625544,-355902.0,-287885.0,-8645734.0,-1202.0,84956.0,-12285.0
1471539678327611542,-376942.0,-275488.0,-8718443.0,-1040.0,86650.0,-11466.0
1471539678329122462,-336084.0,-275905.0,-8718128.0,-2232.0,83985.0,-11391.0
1471539678338611586,-355075.0,-288142.0,-8647265.0,-1182.0,84964.0,-9909.0
1471539678340156278,-356080.0,-287063.0,-8609996.0,-1206.0,86410.0,-12339.0
1471539678350847613,-355911.0,-238080.0,-8683473.0,-569.0,87876.0,-11509.0
1471539678352317413,-335626.0,-274779.0,-8719093.0,-987.0,86167.0,-11431.0
1471539678362178867,-356171.0,-311302.0,-8610212.0,-1499.0,86403.0,-11543.0
1471539678363613632,-375643.0,-275122.0,-8647032.0,173.0,87387.0,-11553.0
1471539678365776378,-356002.0,-262319.0,-8683688.0,-862.0,87869.0,-10713.0
1471539678367232639,-355825.0,-263142.0,-8719426.0,-857.0,86416.0,-10659.0
1471539678375621470,-377755.0,-274969.0,-8646003.0,-2295.0,87375.0,-11534.0
1471539678377128437,-377755.0,-274969.0,-8646003.0,-2295.0,87375.0,-11534.0
1471539678387822286,-377577.0,-275792.0,-8681740.0,-2290.0,85922.0,-11480.0
1471539678388832553,-357189.0,-309719.0,-8646850.0,-1472.0,89302.0,-11551.0
1471539678399119450,-358941.0,-261909.0,-8681128.0,-3349.0,87850.0,-13070.0
1471539678400164153,-356460.0,-263446.0,-8682723.0,-2107.0,85688.0,-10672.0
1471539678411022000,-355825.0,-263142.0,-8719426.0,-857.0,86416.0,-10659.0
1471539678411819062,-375734.0,-299362.0,-8647247.0,-120.0,87380.0,-10757.0
1471539678422628536,-356460.0,-263446.0,-8682723.0,-2107.0,85688.0,-10672.0
1471539678423641067,-357098.0,-285479.0,-8646635.0,-1179.0,89308.0,-12347.0
1471539678425116444,-356192.0,-240029.0,-8718245.0,-1810.0,84241.0,-11414.0
1471539678426643082,-377119.0,-274665.0,-8682705.0,-1045.0,88104.0,-11520.0
1471539678444653958,-357379.0,-287428.0,-8681407.0,-2419.0,85673.0,-12252.0
1471539678445617892,-357556.0,-286606.0,-8645670.0,-2424.0,87127.0,-12307.0
1471539678448149464,-356460.0,-263446.0,-8682723.0,-2107.0,85688.0,-10672.0
1471539678449764754,-377033.0,-299728.0,-8718658.0,-1333.0,86644.0,-10670.0
1471539678458611875,-375466.0,-275945.0,-8682769.0,177.0,85933.0,-11499.0
1471539678461193212,-375466.0,-275945.0,-8682769.0,177.0,85933.0,-11499.0
1471539678470867556,-356283.0,-264268.0,-8718461.0,-2102.0,84234.0,-10618.0
1471539678472280574,-336262.0,-275083.0,-8682390.0,-2236.0,85439.0,-11445.0
1471539678482611577,-336171.0,-250843.0,-8682175.0,-1944.0,85445.0,-12241.0
1471539678484166292,-376192.0,-300488.0,-8646282.0,-1365.0,85198.0,-10717.0
1471539678485311230,-357379.0,-287428.0,-8681407.0,-2419.0,85673.0,-12252.0
1471539678486640074,-357379.0,-287428.0,-8681407.0,-2419.0,85673.0,-12252.0
1471539678504622026,-356283.0,-264268.0,-8718461.0,-2102.0,84234.0,-10618.0
1471539678505621296,-336439.0,-274260.0,-8646653.0,-2241.0,86892.0,-11499.0
1471539678507834137,-336439.0,-274260.0,-8646653.0,-2241.0,86892.0,-11499.0
1471539678510833708,-356460.0,-263446.0,-8682723.0,-2107.0,85688.0,-10672.0
1471539678518636874,-355162.0,-263080.0,-8611312.0,-894.0,86424.0,-10759.0
1471539678520114869,-375730.0,-250060.0,-8611079.0,461.0,88847.0,-12403.0
1471539678529837977,-377577.0,-275792.0,-8681740.0,-2290.0,85922.0,-11480.0
1471539678531391345,-357556.0,-286606.0,-8645670.0,-2424.0,87127.0,-12307.0
1471539678542130929,-356921.0,-286302.0,-8682372.0,-1174.0,87855.0,-12293.0
1471539678543614744,-355535.0,-310999.0,-8646914.0,-249.0,87131.0,-11530.0
1471539678544844344,-357556.0,-286606.0,-8645670.0,-2424.0,87127.0,-12307.0
1471539678546440863,-377577.0,-275792.0,-8681740.0,-2290.0,85922.0,-11480.0
1471539678564620394,-377486.0,-251552.0,-8681525.0,-1997.0,85928.0,-12276.0
1471539678565622307,-375643.0,-275122.0,-8647032.0,173.0,87387.0,-11553.0
1471539678567806470,-378036.0,-276918.0,-8680775.0,-3535.0,83740.0,-11440.0
1471539678568843647,-376101.0,-276249.0,-8646067.0,-1072.0,85205.0,-11513.0
1471539678578618704,-357201.0,-288251.0,-8717145.0,-2415.0,84219.0,-12198.0
1471539678581662674,-376942.0,-275488.0,-8718443.0,-1040.0,86650.0,-11466.0
1471539678589831591,-336262.0,-275083.0,-8682390.0,-2236.0,85439.0,-11445.0
1471539678591310100,-377033.0,-299728.0,-8718658.0,-1333.0,86644.0,-10670.0
1471539678602106534,-357556.0,-286606.0,-8645670.0,-2424.0,87127.0,-12307.0
1471539678603127835,-376942.0,-275488.0,-8718443.0,-1040.0,86650.0,-11466.0
1471539678604788818,-357201.0,-288251.0,-8717145.0,-2415.0,84219.0,-12198.0
1471539678606629276,-375924.0,-277071.0,-8681804.0,-1067.0,83751.0,-11459.0
1471539678632091065,-355902.0,-287885.0,-8645734.0,-1202.0,84956.0,-12285.0
1471539678633161135,-337647.0,-250386.0,-8717848.0,-3161.0,86162.0,-12208.0
1471539678634602282,-356192.0,-240029.0,-8718245.0,-1810.0,84241.0,-11414.0
1471539678636117783,-357379.0,-287428.0,-8681407.0,-2419.0,85673.0,-12252.0
1471539678638614364,-376559.0,-277375.0,-8645102.0,-2317.0,83023.0,-11472.0
1471539678640097618,-336262.0,-275083.0,-8682390.0,-2236.0,85439.0,-11445.0
1471539678650304263,-377400.0,-276614.0,-8717478.0,-2285.0,84468.0,-11426.0
1471539678651551276,-377486.0,-251552.0,-8681525.0,-1997.0,85928.0,-12276.0
1471539678662143298,-355902.0,-287885.0,-8645734.0,-1202.0,84956.0,-12285.0
1471539678664139788,-356921.0,-286302.0,-8682372.0,-1174.0,87855.0,-12293.0
1471539678666611855,-357837.0,-288555.0,-8680442.0,-3664.0,83491.0,-12212.0
1471539678668096690,-377577.0,-275792.0,-8681740.0,-2290.0,85922.0,-11480.0
1471539678684626098,-336262.0,-275083.0,-8682390.0,-2236.0,85439.0,-11445.0
1471539678685620138,-377119.0,-274665.0,-8682705.0,-1045.0,88104.0,-11520.0
1471539678687829871,-356283.0,-264268.0,-8718461.0,-2102.0,84234.0,-10618.0
1471539678689841072,-356921.0,-286302.0,-8682372.0,-1174.0,87855.0,-12293.0
1471539678698097545,-354807.0,-264725.0,-8682787.0,-884.0,83517.0,-10651.0
1471539678699612710,-356460.0,-263446.0,-8682723.0,-2107.0,85688.0,-10672.0
1471539678710297756,-377400.0,-276614.0,-8717478.0,-2285.0,84468.0,-11426.0
1471539678712091887,-356460.0,-263446.0,-8682723.0,-2107.0,85688.0,-10672.0
1471539678722250333,-377119.0,-274665.0,-8682705.0,-1045.0,88104.0,-11520.0
1471539678723788955,-357096.0,-263749.0,-8646021.0,-3356.0,84960.0,-10686.0
1471539678733983932,-356192.0,-240029.0,-8718245.0,-1810.0,84241.0,-11414.0
1471539678734983260,-376279.0,-275426.0,-8610329.0,-1077.0,86659.0,-11567.0
1471539678744336914,-376101.0,-276249.0,-8646067.0,-1072.0,85205.0,-11513.0
1471539678745783451,-77286.0,-63548.0,-10292386.0,-33276.0,60094.0,-9150.0
1471539678748034032,-317919.0,-114235.0,-8755860.0,-2691.0,91038.0,-13033.0
1471539678749111434,-418447.0,-253906.0,-8752350.0,-2042.0,83504.0,-12202.0
1471539678758821072,-173945.0,-342868.0,-8719213.0,-2912.0,86369.0,-13677.0
1471539678761741872,-476255.0,-244031.0,-9094335.0,-26517.0,56281.0,-14493.0
1471539678770013904,-542663.0,-137648.0,-8712221.0,-4459.0,79902.0,-13844.0
1471539678771854663,-503814.0,-135141.0,-8640367.0,-6882.0,82315.0,-13899.0
1471539678782333056,-122342.0,930870.0,-10411535.0,-124665.0,97207.0,-12044.0
1471539678783297766,-7403.0,-119216.0,-8726836.0,-1185.0,91051.0,-11280.0
1471539678793459523,-486.0,465241.0,-9398898.0,-56630.0,112696.0,-8933.0
1471539678794972114,-356286.0,93628.0,-9147483.0,-20981.0,94864.0,-11021.0
1471539678812199395,-422747.0,-161358.0,-9106708.0,-25453.0,94763.0,-11045.0
1471539678813852936,-40817.0,413122.0,-9539595.0,-54822.0,107346.0,-11930.0
1471539678815860810,-162732.0,358526.0,-9500536.0,-55618.0,101532.0,-10374.0
1471539678817281356,-398305.0,581710.0,-9382589.0,-69192.0,97678.0,-12073.0
1471539678818782868,-315872.0,655225.0,-9456185.0,-69400.0,96003.0,-11928.0
1471539678819822870,-1236570.0,324504.0,-10147718.0,-56859.0,21437.0,-11728.0
1471539678838492754,-477080.0,422978.0,-9916108.0,-66109.0,76799.0,-13720.0
1471539678839492471,-439718.0,454019.0,-9918281.0,-66941.0,87197.0,-14626.0
1471539678842531023,-278787.0,532533.0,-9994516.0,-70689.0,91076.0,-12099.0
1471539678846118483,-325726.0,699133.0,-10098517.0,-78510.0,87215.0,-12716.0
1471539678853375045,-442573.0,477044.0,-10496835.0,-47948.0,66447.0,-16332.0
1471539678854336077,-615427.0,-25012.0,-10896009.0,-29504.0,65622.0,-13019.0
1471539678865108608,-498747.0,102506.0,-10932866.0,-35213.0,71430.0,-14530.0
1471539678866132681,-388159.0,275872.0,-11146359.0,-48917.0,72129.0,-14951.0
1471539678874818689,-383243.0,534175.0,-11322940.0,-65397.0,77684.0,-14737.0
1471539678876298042,-405848.0,401951.0,-11430581.0,-65781.0,80050.0,-13880.0
1471539678894613022,-418170.0,621171.0,-11498409.0,-80328.0,81500.0,-13737.0
1471539678895648968,-353006.0,917240.0,-11565734.0,-98802.0,86333.0,-15935.0
1471539678898866621,-361570.0,1063995.0,-11671437.0,-108062.0,88506.0,-15803.0
1471539678900056690,-331847.0,1187629.0,-11775446.0,-120048.0,90169.0,-17198.0
1471539678902414308,-276968.0,1253094.0,-11883540.0,-125325.0,95957.0,-17891.0
1471539678903505889,-140395.0,1388998.0,-12099038.0,-133294.0,94252.0,-18306.0
1471539678921387203,-203247.0,1442234.0,-12381630.0,-135083.0,83349.0,-21084.0
1471539678922337639,-249207.0,1344590.0,-12666417.0,-137487.0,83035.0,-22398.0
1471539678924935570,-233282.0,1383045.0,-12917490.0,-139399.0,85670.0,-24549.0
1471539678925993517,-116931.0,1438327.0,-13244624.0,-143413.0,92898.0,-23443.0
1471539678935272392,-102113.0,1475855.0,-13531937.0,-147767.0,94076.0,-23145.0
1471539678936300090,-151000.0,1499721.0,-13744211.0,-154858.0,94515.0,-23718.0
1471539678941775458,-163443.0,1673213.0,-13957684.0,-166234.0,101026.0,-24324.0
1471539678943344168,-48089.0,1800607.0,-14210768.0,-171869.0,106818.0,-25634.0
1471539678958295971,55179.0,1869396.0,-14288792.0,-167205.0,117973.0,-26484.0
1471539678959815065,134285.0,1874941.0,-14472949.0,-168209.0,124974.0,-23974.0
1471539678963206904,76322.0,2097594.0,-14576638.0,-185228.0,134147.0,-23915.0
1471539678964310673,249053.0,2189304.0,-14863933.0,-196162.0,137724.0,-25074.0
1471539678981472092,266543.0,2230578.0,-15082730.0,-195568.0,146183.0,-24984.0
1471539678982470800,393246.0,2116018.0,-15559300.0,-185580.0,154137.0,-23058.0
1471539678984934344,401004.0,1994747.0,-15815388.0,-173423.0,154855.0,-23709.0
1471539678986535257,385788.0,1885204.0,-16178895.0,-163568.0,155802.0,-23468.0
1471539678994481584,343585.0,1835933.0,-16502513.0,-161650.0,156249.0,-24004.0
1471539678996072419,326909.0,1748073.0,-16827172.0,-155242.0,152111.0,-24492.0
1471539679004063911,286642.0,1721201.0,-17115468.0,-153038.0,149675.0,-23440.0
1471539679005002017,293281.0,1620472.0,-17478091.0,-144267.0,143854.0,-22290.0
1471539679018461959,162772.0,1528089.0,-17731072.0,-126980.0,137586.0,-25360.0
1471539679019531425,71819.0,1265548.0,-18093359.0,-112895.0,128600.0,-22683.0
1471539679022871420,-23155.0,1101357.0,-18346081.0,-103814.0,121805.0,-20897.0
1471539679023705974,-10445.0,1026053.0,-18640101.0,-87358.0,118931.0,-20709.0
1471539679040801686,11838.0,1014505.0,-18785613.0,-83734.0,119413.0,-21385.0
1471539679043589128,-61564.0,842057.0,-19040896.0,-71047.0,118913.0,-20493.0
1471539679044662673,-79777.0,758510.0,-19224072.0,-65860.0,122769.0,-18844.0
1471539679046149723,-81750.0,780316.0,-19476889.0,-69162.0,119128.0,-14573.0
1471539679063987251,-65457.0,817387.0,-19728527.0,-72298.0,119589.0,-14308.0
1471539679067966197,-59506.0,791243.0,-19840509.0,-66377.0,117435.0,-11052.0
1471539679068394994,-105158.0,837874.0,-19946050.0,-71969.0,115726.0,-10123.0
1471539679069447228,-84068.0,850461.0,-20091849.0,-70500.0,116212.0,-9201.0
1471539679078858755,-122459.0,849080.0,-20164667.0,-66832.0,115981.0,-9187.0
1471539679079497191,-138825.0,784658.0,-20309123.0,-62647.0,110410.0,-8224.0
1471539679082347940,-174851.0,657868.0,-20524000.0,-56773.0,102156.0,-8763.0
1471539679084001330,-205855.0,509027.0,-20887895.0,-42481.0,99001.0,-8510.0
1471539679100954216,-241784.0,456545.0,-21069386.0,-36917.0,94407.0,-6761.0
1471539679101975313,-269294.0,417570.0,-21390502.0,-44688.0,90232.0,-3975.0
1471539679112788200,-273377.0,467101.0,-21606736.0,-47699.0,92395.0,-2992.0
1471539679114078571,-275255.0,562449.0,-21823170.0,-50128.0,90228.0,-1163.0
1471539679116317053,-249309.0,709749.0,-21999378.0,-67930.0,91156.0,1524.0
1471539679117357887,-180025.0,860938.0,-22141927.0,-80745.0,97420.0,1715.0
1471539679124039420,-164721.0,1041920.0,-22285730.0,-88283.0,95749.0,4310.0
1471539679124941732,-96165.0,1289403.0,-22392748.0,-103605.0,101317.0,6074.0
1471539679138007918,-44568.0,1478023.0,-22356855.0,-113577.0,110763.0,6014.0
1471539679139595190,42373.0,1616360.0,-22352261.0,-131520.0,113866.0,5378.0
1471539679143074752,93958.0,1826448.0,-22386663.0,-142435.0,118231.0,4671.0
1471539679144414688,138876.0,1826809.0,-22281760.0,-139931.0,117776.0,6962.0
1471539679161140359,116572.0,1767063.0,-22243939.0,-140724.0,119442.0,5316.0
1471539679162609072,105063.0,1680908.0,-22427770.0,-128177.0,118971.0,4595.0
1471539679165420852,50325.0,1522101.0,-22537625.0,-117836.0,119680.0,3782.0
1471539679167640573,31790.0,1436585.0,-22971298.0,-111368.0,119886.0,3333.0
1471539679174600206,33392.0,1336680.0,-23259423.0,-108786.0,114768.0,4453.0
1471539679175622988,28587.0,1410970.0,-23403002.0,-112760.0,117663.0,4572.0
1471539679183625149,62429.0,1510562.0,-23583191.0,-120052.0,120796.0,6359.0
1471539679185177149,130155.0,1730730.0,-23724232.0,-138152.0,120540.0,9054.0
1471539679198615876,330493.0,2098011.0,-23613121.0,-164322.0,137460.0,5880.0
1471539679199577162,460063.0,2386095.0,-23432260.0,-180440.0,147403.0,4983.0
1471539679202293706,480289.0,2663950.0,-23212222.0,-201765.0,164330.0,3132.0
1471539679203434701,594699.0,2842008.0,-23105235.0,-210600.0,173781.0,2248.0
1471539679221140100,653710.0,2882926.0,-23215603.0,-211234.0,179585.0,2312.0
1471539679222186091,649387.0,2908799.0,-23251499.0,-215829.0,182476.0,3922.0
1471539679224921903,737396.0,2908250.0,-23472679.0,-209472.0,179353.0,6553.0
1471539679226168357,778770.0,2884138.0,-23654098.0,-208420.0,178129.0,7553.0
1471539679234156047,719790.0,2818641.0,-23869314.0,-205501.0,172305.0,8568.0
1471539679235627393,671390.0,2681104.0,-23981642.0,-189935.0,168699.0,9359.0
1471539679246941600,666295.0,2660682.0,-24197391.0,-191375.0,175190.0,7898.0
1471539679247979838,684523.0,2698424.0,-24414321.0,-192049.0,177116.0,8090.0
1471539679258088462,724176.0,2750218.0,-24452646.0,-192585.0,181723.0,8880.0
1471539679259173588,770895.0,2889276.0,-24485069.0,-208088.0,188219.0,8182.0
1471539679264671159,845704.0,3062255.0,-24557651.0,-216933.0,190894.0,9909.0
1471539679266150501,941453.0,3248402.0,-24595478.0,-225599.0,194788.0,12390.0
1471539679280629757,1074095.0,3365093.0,-24703851.0,-236320.0,201779.0,12567.0
1471539679281704211,1172703.0,3504356.0,-24671161.0,-240667.0,208581.0,14117.0
1471539679285154458,1264887.0,3647411.0,-24600045.0,-249950.0,221159.0,13213.0
1471539679286433134,1272058.0,3759177.0,-24523019.0,-265857.0,223788.0,13237.0
1471539679294620158,1282972.0,3756766.0,-24599639.0,-253511.0,220936.0,13251.0
1471539679295678119,1283701.0,3660471.0,-24635170.0,-251004.0,221633.0,11678.0
1471539679306908748,1246355.0,3462022.0,-25029149.0,-243513.0,214791.0,8903.0
1471539679308428432,1181299.0,3307154.0,-25355446.0,-223187.0,202712.0,6798.0
1471539679317659151,1159591.0,3269422.0,-25569438.0,-222387.0,200744.0,4633.0
1471539679318596556,1191496.0,3346614.0,-25784950.0,-229965.0,206760.0,4832.0
1471539679324574387,1237014.0,3418291.0,-25895692.0,-225287.0,204137.0,4958.0
1471539679325587829,1322972.0,3629767.0,-25749136.0,-247269.0,208724.0,8945.0
1471539679347617498,1318942.0,3955333.0,-25664731.0,-280267.0,202642.0,9208.0
1471539679348613874,1317765.0,4149106.0,-25555899.0,-282858.0,202697.0,7529.0
1471539679356639020,1408313.0,4336397.0,-25409584.0,-297770.0,207294.0,7503.0
1471539679358103598,1513082.0,4539204.0,-25298768.0,-318629.0,216704.0,8293.0
1471539679359102901,1558187.0,4637346.0,-25157266.0,-314959.0,217729.0,7346.0
1471539679360092072,1532151.0,4608374.0,-24981615.0,-300592.0,212484.0,7908.0
1471539679367208072,1523729.0,4587015.0,-24833297.0,-309570.0,216068.0,6208.0
1471539679368184548,1448348.0,4438214.0,-24868613.0,-300396.0,213391.0,3786.0
1471539679376820356,1460736.0,4108760.0,-24953737.0,-258815.0,212976.0,1172.0
1471539679378419857,1362131.0,3692213.0,-24994436.0,-225872.0,210792.0,-4618.0
1471539679389203764,1180518.0,3341325.0,-25105333.0,-198291.0,200156.0,-5490.0
1471539679390690551,1072501.0,3137221.0,-25393177.0,-179874.0,187810.0,-8428.0
1471539679401005415,1076367.0,3064155.0,-25827331.0,-170776.0,187785.0,-10465.0
1471539679402372349,1092950.0,3053370.0,-26006458.0,-173305.0,188961.0,-11071.0
1471539679404872070,1212478.0,3156238.0,-26046091.0,-176819.0,194783.0,-9429.0
1471539679406179790,1443310.0,3389356.0,-25905698.0,-193474.0,210757.0,-7129.0
1471539679423350347,1576492.0,3790340.0,-25540638.0,-231653.0,225503.0,-3333.0
1471539679424353880,1670458.0,4225807.0,-25236945.0,-292852.0,235314.0,759.0
1471539679427055181,1689577.0,4843199.0,-24999661.0,-369126.0,247286.0,4948.0
1471539679428623429,1758829.0,5316736.0,-24767368.0,-433561.0,260957.0,9061.0
1471539679437792241,1834438.0,5577216.0,-24470421.0,-468580.0,264782.0,11436.0
1471539679439325463,1808686.0,5613373.0,-24214522.0,-476883.0,264293.0,11254.0
1471539679444655716,1736208.0,5439439.0,-23962982.0,-468086.0,260190.0,11755.0
1471539679445559442,1632004.0,5141423.0,-24002683.0,-445959.0,253664.0,11646.0
1471539679461298075,1567528.0,4770003.0,-24183001.0,-423453.0,242978.0,7007.0
1471539679462560626,1464826.0,4254315.0,-24545441.0,-394080.0,236371.0,2408.0
1471539679465086899,1374376.0,3898124.0,-24650462.0,-375183.0,230983.0,-6320.0
1471539679466605452,1260297.0,3624632.0,-24934231.0,-360148.0,222934.0,-14041.0
1471539679483578186,1164032.0,3525724.0,-25644736.0,-368679.0,220849.0,-19661.0
1471539679484562495,1186219.0,3492544.0,-25320678.0,-366741.0,224975.0,-22396.0
1471539679487398233,1197990.0,3594629.0,-26139218.0,-392348.0,230132.0,-24645.0
1471539679488409936,1366663.0,3902534.0,-26027874.0,-414293.0,230143.0,-23678.0
1471539679497570789,1450757.0,4208855.0,-26023844.0,-438755.0,231109.0,-20285.0
1471539679499055848,1469625.0,4647125.0,-25726731.0,-469186.0,231378.0,-20326.0
1471539679504307695,1567271.0,4855286.0,-24969419.0,-484002.0,230245.0,-16886.0
1471539679505567373,1507096.0,5118015.0,-25138361.0,-507895.0,223433.0,-18069.0
1471539679521070049,1608447.0,5069811.0,-23777534.0,-498933.0,221173.0,-12988.0
1471539679522138705,1467146.0,5135945.0,-24270299.0,-519047.0,213085.0,-12339.0
1471539679524927674,1455169.0,4949294.0,-24522503.0,-507724.0,205312.0,-14458.0
1471539679525915034,1213609.0,4746981.0,-23654550.0,-492229.0,180254.0,-12828.0
1471539679543615872,1067644.0,4492693.0,-23147714.0,-477201.0,165528.0,-14888.0
1471539679545089626,926091.0,4130943.0,-23573042.0,-473037.0,151852.0,-15984.0
1471539679547104301,826427.0,4082770.0,-23385852.0,-476245.0,134189.0,-15947.0
1471539679548399016,735865.0,4009082.0,-22660433.0,-473772.0,114415.0,-15635.0
1471539679556784563,465987.0,4186016.0,-22891491.0,-507516.0,91820.0,-14215.0
1471539679558280888,594635.0,4320203.0,-22308451.0,-534244.0,85033.0,-10402.0
1471539679568298788,844870.0,4827284.0,-19543620.0,-544745.0,113660.0,-12386.0
1471539679568676671,842786.0,4936033.0,-16987169.0,-544277.0,112703.0,-12412.0
1471539679580795792,930082.0,5170395.0,-14131388.0,-504078.0,143904.0,-13462.0
1471539679582233193,1624623.0,5183132.0,-10759703.0,-442773.0,209498.0,-15234.0
1471539679584850140,1751542.0,5873904.0,-9939186.0,-460332.0,247907.0,-15568.0
1471539679587584636,2078422.0,5844584.0,-10240948.0,-454091.0,269423.0,-13835.0
1471539679603777291,1614021.0,5902332.0,-10001540.0,-368791.0,210375.0,-16656.0
1471539679604832075,1835386.0,-2308377.0,-30919749.0,1766934.0,377330.0,-7507.0
1471539679607767259,1544447.0,-8714270.0,-33340704.0,2222459.0,39539.0,-38147.0
1471539679609298964,-4049256.0,-10224268.0,-31561255.0,1779225.0,-1136654.0,-63476.0
1471539679616794084,-5792111.0,-6805500.0,-27272320.0,1257044.0,-1032832.0,-42955.0
1471539679617754768,-5005364.0,-530289.0,-19359018.0,484964.0,-526885.0,-19930.0
1471539679626324882,-2594835.0,3204295.0,-14897984.0,-123027.0,-334218.0,-20239.0
1471539679627828519,1150742.0,3278161.0,-10568366.0,-340878.0,58272.0,-13548.0
1471539679640830292,2483732.0,3972203.0,-9720162.0,-384505.0,262882.0,-15998.0
1471539679642266892,1929405.0,5407347.0,-8409641.0,-346839.0,287334.0,-14423.0
1471539679645767736,3005604.0,4636566.0,-12502216.0,30277.0,802681.0,-17927.0
1471539679646732334,2456584.0,4006351.0,-10137136.0,-89242.0,305803.0,-16401.0
1471539679663289676,2898839.0,3234405.0,-12974365.0,109996.0,213160.0,-15374.0
1471539679664309746,4436082.0,2482435.0,-13866781.0,195122.0,242976.0,-12216.0
1471539679667088954,2717509.0,4600073.0,-13677181.0,29450.0,252825.0,-14805.0
1471539679668637126,1198203.0,5003146.0,-12146520.0,-111979.0,216164.0,-17151.0
1471539679676840296,1323606.0,4324108.0,-11386648.0,-97041.0,186576.0,-18231.0
1471539679678294615,2133691.0,3099027.0,-11093648.0,69958.0,148060.0,-14804.0
1471539679686265475,2047672.0,1922011.0,-10934960.0,265030.0,86464.0,-13361.0
1471539679687240242,299333.0,2033938.0,-10954887.0,351042.0,-14639.0,-13853.0
1471539679705125215,-1948051.0,2464528.0,-11315170.0,279153.0,-218411.0,-13166.0
1471539679707167132,-2066113.0,2565886.0,-11882214.0,215213.0,-301160.0,-13379.0
1471539679707604147,78573.0,2767355.0,-12344145.0,139813.0,-195116.0,-13933.0
1471539679708683655,1682577.0,2934849.0,-12272553.0,86641.0,-58470.0,-13600.0
1471539679730427584,2329395.0,2652785.0,-12503914.0,198409.0,96654.0,-14487.0
1471539679732404816,2296393.0,1805167.0,-12443098.0,320813.0,286480.0,-15857.0
1471539679734867734,2407622.0,1436058.0,-11646192.0,293802.0,329563.0,-19250.0
1471539679735926668,1924838.0,1315486.0,-10475450.0,206407.0,272663.0,-15156.0
1471539679736828296,1570473.0,1228330.0,-9796748.0,149205.0,273874.0,-16343.0
1471539679738363526,1213448.0,1496831.0,-9585310.0,85503.0,262814.0,-14516.0
1471539679746354661,1117327.0,1536676.0,-10041865.0,68793.0,249170.0,-15403.0
1471539679747847260,1944747.0,1063380.0,-11030672.0,162790.0,267976.0,-16535.0
1471539679761638438,2432482.0,831235.0,-11909760.0,263102.0,280138.0,-15606.0
1471539679764383357,2011279.0,962061.0,-11906082.0,300155.0,214122.0,-12920.0
1471539679772233709,1779922.0,1906125.0,-11338754.0,248535.0,175315.0,-13480.0
1471539679773711648,1662267.0,2831494.0,-10491657.0,116520.0,150661.0,-13732.0
1471539679783388437,1572463.0,3219349.0,-9505395.0,-1212.0,137995.0,-14346.0
1471539679784402707,1412315.0,2886652.0,-9108752.0,-9383.0,175112.0,-14463.0
1471539679787421015,1144668.0,2780189.0,-9106524.0,-22123.0,210561.0,-13446.0
1471539679788669158,1192300.0,3050087.0,-9202105.0,-44600.0,190220.0,-16029.0
1471539679796882732,1682860.0,3013436.0,-9603957.0,-62911.0,209434.0,-14638.0
1471539679798346009,1938945.0,2797435.0,-9967523.0,-67674.0,222122.0,-15036.0
1471539679806341108,1699649.0,2664541.0,-10179277.0,-59624.0,211943.0,-15707.0
1471539679807328733,1488413.0,2753679.0,-10102334.0,-51337.0,187116.0,-15651.0
1471539679820836656,1355619.0,3042777.0,-9812050.0,-47973.0,170089.0,-15033.0
1471539679821942469,1176672.0,2953429.0,-8401709.0,-52212.0,167983.0,-14822.0
1471539679824893767,1070825.0,2843580.0,-7856131.0,-58810.0,169170.0,-15358.0
1471539679826190856,833462.0,2777908.0,-7520914.0,-74782.0,167413.0,-14875.0
1471539679843255046,747355.0,2730066.0,-7446009.0,-77971.0,171254.0,-15818.0
1471539679844840856,710295.0,2583633.0,-7772045.0,-69841.0,171700.0,-15602.0
1471539679847313024,902756.0,2095587.0,-8177213.0,-53335.0,179565.0,-14516.0
1471539679848299135,1073574.0,1796141.0,-8406417.0,-35834.0,201530.0,-13832.0
1471539679856773217,956689.0,1533727.0,-8446355.0,-21950.0,214557.0,-14948.0
1471539679858263265,876942.0,1144241.0,-8245570.0,13741.0,239751.0,-15824.0
1471539679866274524,823216.0,803205.0,-7896518.0,46354.0,242240.0,-14895.0
1471539679867283051,833500.0,450446.0,-7516106.0,98643.0,224029.0,-13830.0
1471539679882494118,750559.0,472903.0,-7264628.0,113571.0,205027.0,-13985.0
1471539679882990213,356129.0,669373.0,-7349240.0,94697.0,159544.0,-14967.0
1471539679885400629,-24802.0,994766.0,-7859359.0,49206.0,124345.0,-14675.0
1471539679886396025,-105381.0,987732.0,-8235237.0,18391.0,89363.0,-12827.0
1471539679903086446,-61635.0,618267.0,-8556187.0,21400.0,75693.0,-12302.0
1471539679904588974,-193651.0,275064.0,-8584840.0,30605.0,51921.0,-14457.0
1471539679907351611,-591205.0,96400.0,-8673863.0,16931.0,28099.0,-14968.0
1471539679908393716,-936923.0,-1328.0,-8448894.0,17748.0,19142.0,-16079.0
1471539679917049557,-1160532.0,-23291.0,-8227198.0,15954.0,10931.0,-14723.0
1471539679918052212,-1143493.0,6510.0,-7968217.0,5170.0,-3109.0,-14666.0
1471539679926227833,-988685.0,12885.0,-7895163.0,-5716.0,-8.0,-14580.0
1471539679927085660,-1039172.0,158385.0,-7818698.0,-17566.0,1200.0,-14612.0
1471539679940561105,-906333.0,277750.0,-8326746.0,-23188.0,13984.0,-14186.0
1471539679942158608,-567131.0,191497.0,-8516775.0,-25098.0,39557.0,-14115.0
1471539679954528164,-510818.0,114682.0,-8807577.0,-24677.0,51111.0,-14755.0
1471539679955569099,-442525.0,-58608.0,-8889124.0,-11917.0,64894.0,-12549.0
1471539679963574472,-584898.0,-26380.0,-8742539.0,-11720.0,63709.0,-12771.0
1471539679964564474,-541222.0,-290274.0,-8418117.0,-8894.0,65351.0,-13865.0
1471539679974401704,-897730.0,-283290.0,-7957348.0,-51256.0,42953.0,-14651.0
1471539679976394840,-827165.0,-189518.0,-7151329.0,-93473.0,49627.0,-14305.0
1471539679978876035,-847526.0,-246204.0,-6500469.0,-114174.0,75682.0,-12740.0
1471539679979890463,-430993.0,898843.0,-5361492.0,-227082.0,121072.0,-14862.0
1471539679986071475,51063.0,1585954.0,-3437919.0,-333516.0,188904.0,-13265.0
1471539679987591389,438109.0,1579638.0,-3058004.0,-328437.0,226426.0,-13931.0
1471539680001138769,546066.0,1537507.0,-3187422.0,-275755.0,219391.0,-14088.0
1471539680002141513,-154817.0,512279.0,-7958149.0,-35757.0,96956.0,-13517.0
1471539680004886983,-499285.0,-12902.0,-8463793.0,-2958.0,85291.0,-13355.0
1471539680006391767,223466.0,-688425.0,-8490672.0,35062.0,105305.0,-14189.0
1471539680023056822,161984.0,-822914.0,-8814983.0,38387.0,105978.0,-13163.0
1471539680024542434,-71723.0,-278861.0,-9010633.0,-687.0,88791.0,-14183.0
1471539680027920032,-521775.0,-365672.0,-8965186.0,221.0,82486.0,-14444.0
1471539680030911284,-602448.0,-536803.0,-8819573.0,1674.0,82693.0,-13846.0
1471539680045552585,-417611.0,-446537.0,-8715800.0,488.0,84904.0,-13055.0
1471539680046518528,-376099.0,-397087.0,-8645111.0,-107.0,85167.0,-12304.0
1471539680052082118,-436021.0,-241780.0,-8465045.0,-772.0,84507.0,-11719.0
1471539680053046896,-378379.0,-154938.0,-8536350.0,-4561.0,85232.0,-13179.0
1471539680060546589,-193145.0,-112365.0,-8759341.0,-2510.0,89597.0,-10553.0
1471539680061928410,-51678.0,-48241.0,-8831659.0,-4036.0,89352.0,-13543.0
1471539680064882608,-255419.0,-175807.0,-8900523.0,-2088.0,86660.0,-12003.0
1471539680066176968,-399091.0,-143945.0,-8825349.0,-3104.0,84738.0,-12137.0
1471539680091542285,-337556.0,-226146.0,-8717633.0,-2869.0,86169.0,-13004.0
1471539680094187758,-276025.0,-357650.0,-8646085.0,-3214.0,86133.0,-12225.0
1471539680094595024,-396642.0,-554448.0,-8535273.0,345.0,85366.0,-13207.0
1471539680095614357,-641143.0,-586325.0,-8567454.0,2180.0,82463.0,-12524.0
1471539680096582060,-643541.0,-368174.0,-8603724.0,-1279.0,83241.0,-12489.0
1471539680097703698,-377860.0,-299471.0,-8717127.0,-1353.0,86635.0,-13046.0
1471539680112565800,-235282.0,-332763.0,-8754633.0,-2832.0,85648.0,-12885.0
1471539680113603160,-193706.0,-258831.0,-8828544.0,-1849.0,86637.0,-12815.0
1471539680121119931,-275239.0,-66949.0,-8829085.0,-2023.0,87669.0,-12106.0
1471539680124720927,-255382.0,65124.0,-8683713.0,-5355.0,84563.0,-12958.0
1471539680126020993,-214519.0,-27794.0,-8649885.0,-4007.0,89863.0,-12250.0
1471539680127013637,-253252.0,-176443.0,-8611920.0,-2193.0,85232.0,-12251.0
1471539680143726582,-376279.0,-275426.0,-8610329.0,-1077.0,86659.0,-11567.0
1471539680145156340,-458175.0,-302106.0,-8607778.0,-274.0,85439.0,-13195.0
1471539680147191259,-437724.0,-459963.0,-8752086.0,330.0,83692.0,-11432.0
1471539680148518765,-398081.0,-507538.0,-8859749.0,-185.0,83180.0,-12080.0
1471539680156681308,-378325.0,-371629.0,-8752945.0,-1001.0,87336.0,-13020.0
1471539680158175688,-337292.0,-252031.0,-8789323.0,-3152.0,83255.0,-12100.0
1471539680173707008,-356187.0,-190726.0,-8682077.0,-1229.0,85707.0,-13060.0
1471539680174711807,-335528.0,-179507.0,-8682095.0,-2291.0,83291.0,-12213.0
1471539680179857348,-274927.0,-164350.0,-8647926.0,-3281.0,86198.0,-11446.0
1471539680181272411,-275471.0,-140413.0,-8611009.0,-4238.0,85476.0,-12255.0
1471539680187687184,-316065.0,-165881.0,-8683014.0,-3330.0,85228.0,-11426.0
1471539680188156628,-335993.0,-251665.0,-8717912.0,-1939.0,83992.0,-12187.0
1471539680203218603,-359320.0,-359130.0,-8752898.0,-3285.0,87090.0,-12194.0
1471539680204662630,-377398.0,-397452.0,-8716521.0,-1321.0,84431.0,-12217.0
1471539680207238341,-437436.0,-386982.0,-8680531.0,-27.0,84446.0,-11512.0
1471539680208555807,-417506.0,-422035.0,-8644676.0,-454.0,85644.0,-11543.0
1471539680216706988,-397400.0,-337074.0,-8645515.0,-1840.0,85426.0,-10728.0
1471539680218190895,-355071.0,-238840.0,-8611097.0,-601.0,86431.0,-11555.0
1471539680226197969,-355438.0,-215727.0,-8609916.0,-1554.0,84256.0,-12311.0
1471539680227192071,-315429.0,-165578.0,-8719716.0,-2081.0,85956.0,-11413.0
1471539680240251755,-255300.0,-151809.0,-8755492.0,-3082.0,85947.0,-12913.0
1471539680242384304,-255569.0,-175226.0,-8719969.0,-3379.0,87394.0,-12172.0
1471539680246710061,-316530.0,-238040.0,-8718831.0,-2978.0,85928.0,-11401.0
1471539680248158356,-376101.0,-276249.0,-8646067.0,-1072.0,85205.0,-11513.0
1471539680263699593,-437149.0,-314000.0,-8608976.0,-384.0,85199.0,-11592.0
1471539680265111810,-417041.0,-349877.0,-8608858.0,-806.0,84943.0,-11568.0
1471539680267534245,-396298.0,-385450.0,-8645443.0,22.0,85416.0,-11531.0
1471539680269025950,-395840.0,-384323.0,-8646408.0,1267.0,87598.0,-11571.0
1471539680285705043,-356467.0,-334478.0,-8719506.0,-510.0,88570.0,-10687.0
1471539680286687793,-335626.0,-274779.0,-8719093.0,-987.0,86167.0,-11431.0
1471539680292554986,-295499.0,-200632.0,-8683861.0,-2507.0,87154.0,-11443.0
1471539680293213786,-295957.0,-201758.0,-8682896.0,-3752.0,84972.0,-11403.0
1471539680301018009,-336448.0,-224454.0,-8684392.0,-1609.0,89812.0,-10723.0
1471539680301360866,-355162.0,-263080.0,-8611312.0,-894.0,86424.0,-10759.0
1471539680307042495,-376279.0,-275426.0,-8610329.0,-1077.0,86659.0,-11567.0
1471539680308409090,-397120.0,-335125.0,-8610742.0,-600.0,89061.0,-10823.0
1471539680323044674,-416039.0,-372687.0,-8646741.0,1396.0,87847.0,-10799.0
1471539680324597506,-416039.0,-372687.0,-8646741.0,1396.0,87847.0,-10799.0
1471539680327342073,-376657.0,-372647.0,-8682100.0,-1013.0,85899.0,-10691.0
1471539680328339403,-355358.0,-311821.0,-8682652.0,-245.0,85678.0,-11475.0
1471539680345512482,-356638.0,-262623.0,-8646986.0,-2111.0,87141.0,-10727.0
1471539680347016982,-358201.0,-237104.0,-8646706.0,-3041.0,89318.0,-11544.0
1471539680350570563,-314857.0,-189755.0,-8611818.0,-2410.0,85958.0,-10717.0
1471539680351037540,-315231.0,-237674.0,-8647420.0,-1765.0,86665.0,-11488.0
1471539680368507577,-314418.0,-238193.0,-8719860.0,-511.0,85939.0,-11420.0
1471539680370078918,-357556.0,-286606.0,-8645670.0,-2424.0,87127.0,-12307.0
1471539680371985865,-376194.0,-322218.0,-8646896.0,813.0,89547.0,-12377.0
1471539680373487460,-376744.0,-347584.0,-8646147.0,-725.0,87359.0,-11541.0
1471539680383526005,-376286.0,-346458.0,-8647112.0,520.0,89541.0,-11581.0
1471539680384482649,-418695.0,-348597.0,-8608794.0,-2028.0,87114.0,-11590.0
1471539680394351692,-398031.0,-288076.0,-8572644.0,-2509.0,86165.0,-12388.0
